File: 000396_correction_saphire_5_1350_Air-static.txt
#FILE:                 ;000396_correction_saphire_5_1350_Air-static.cle
#FORMAT:               ;NETZSCH5
#IDENTITY:             ;000396
#DECIMAL:              ;POINT
#SEPARATOR:            ;SEMICOLON
#MTYPE:                ;DIL
#MSUBTYPE:             ;
#INSTRUMENT:           ;NETZSCH DIL 402 C
#PROJECT:              ;
#DATE/TIME:            ;23.06.2021 18:41:50
#CORR. FILE:           ;
#LABORATORY:           ;НМ
#OPERATOR:             ;Орлов Н.
#REMARK:               ;
#SAMPLE:               ;corr_5
#SAMPLE LENGTH /mm:    ;3.010
#MATERIAL:             ;стандартный образец
#MEASMODE:             ;Standard Expansion
#PURGE GAS 1:          ;
#FLOW RATE 1 /(ml/min):;0
#CORR. CODE:           ;000
#RANGE:                ;40.0/5.0(K/мин)/1350.0
#SEGMENT:              ;S1/1

##Temp./°C;Time/min;dL/Lo
  40.39500;0.0000e+000; 0.0000e+000
  40.40000;    0.18000;-2.9070e-006
  40.42700;    0.36000;-2.3671e-006
  40.51500;    0.54000;-4.8173e-006
  40.66400;    0.72000;-9.6761e-006
  40.90600;    0.90000;-1.3995e-005
  41.19800;    1.08000;-1.9477e-005
  41.51800;    1.26000;-2.6246e-005
  41.83000;    1.44000;-3.8081e-005
  42.15800;    1.62000;-4.7757e-005
  42.47700;    1.80000;-5.6769e-005
  42.84300;    1.98000;-7.0806e-005
  43.23200;    2.16000;-8.3264e-005
  43.67600;    2.34000;-9.7093e-005
  44.16800;    2.52000;-1.1213e-004
  44.68000;    2.70000;-1.2998e-004
  45.23300;    2.88000;-1.4834e-004
  45.79100;    3.06000;-1.6757e-004
  46.38400;    3.24000;-1.8837e-004
  46.98300;    3.42000;-2.1300e-004
  47.63000;    3.60000;-2.3351e-004
  48.31700;    3.78000;-2.5631e-004
  49.02400;    3.96000;-2.8198e-004
  49.76700;    4.14000;-3.0951e-004
  50.52600;    4.32000;-3.3800e-004
  51.29600;    4.50000;-3.6358e-004
  52.10200;    4.68000;-3.9007e-004
  52.93900;    4.86000;-4.2031e-004
  53.79900;    5.04000;-4.4975e-004
  54.67900;    5.22000;-4.8015e-004
  55.57700;    5.40000;-5.1387e-004
  56.49100;    5.58000;-5.4356e-004
  57.43200;    5.76000;-5.7596e-004
  58.39100;    5.94000;-6.0714e-004
  59.37400;    6.12000;-6.4190e-004
  60.36800;    6.30000;-6.7566e-004
  61.38800;    6.48000;-7.0731e-004
  62.41200;    6.66000;-7.4153e-004
  63.45600;    6.84000;-7.7629e-004
  64.52600;    7.02000;-8.0802e-004
  65.59000;    7.20000;-8.4003e-004
  66.67600;    7.38000;-8.7425e-004
  67.76900;    7.56000;-9.0822e-004
  68.87300;    7.74000;-9.4032e-004
  69.98200;    7.92000;-9.7388e-004
  71.12900;    8.10000;-1.0063e-003
  72.25700;    8.28000;-1.0370e-003
  73.40000;    8.46000;-1.0689e-003
  74.55900;    8.64000;-1.1018e-003
  75.71600;    8.82000;-1.1321e-003
  76.87500;    9.00000;-1.1634e-003
  78.04000;    9.18000;-1.1914e-003
  79.21800;    9.36000;-1.2191e-003
  80.40000;    9.54000;-1.2478e-003
  81.57300;    9.72000;-1.2756e-003
  82.75500;    9.90000;-1.3020e-003
  83.92500;   10.08000;-1.3289e-003
  85.10300;   10.26000;-1.3525e-003
  86.29200;   10.44000;-1.3791e-003
  87.46300;   10.62000;-1.4011e-003
  88.65600;   10.80000;-1.4240e-003
  89.82000;   10.98000;-1.4452e-003
  90.99900;   11.16000;-1.4631e-003
  92.16700;   11.34000;-1.4833e-003
  93.32700;   11.52000;-1.5009e-003
  94.49600;   11.70000;-1.5184e-003
  95.64500;   11.88000;-1.5364e-003
  96.79600;   12.06000;-1.5527e-003
  97.94400;   12.24000;-1.5663e-003
  99.09600;   12.42000;-1.5788e-003
 100.229;   12.60000;-1.5918e-003
 101.352;   12.78000;-1.6045e-003
 102.473;   12.96000;-1.6129e-003
 103.599;   13.14000;-1.6233e-003
 104.72;   13.32000;-1.6311e-003
 105.82;   13.50000;-1.6385e-003
 106.915;   13.68000;-1.6467e-003
 108.019;   13.86000;-1.6511e-003
 109.117;   14.04000;-1.6571e-003
 110.19;   14.22000;-1.6607e-003
 111.278;   14.40000;-1.6627e-003
 112.344;   14.58000;-1.6634e-003
 113.416;   14.76000;-1.6650e-003
 114.475;   14.94000;-1.6646e-003
 115.524;   15.12000;-1.6644e-003
 116.578;   15.30000;-1.6632e-003
 117.612;   15.48000;-1.6608e-003
 118.657;   15.66000;-1.6583e-003
 119.684;   15.84000;-1.6545e-003
 120.711;   16.02000;-1.6492e-003
 121.732;   16.20000;-1.6434e-003
 122.753;   16.38000;-1.6382e-003
 123.752;   16.56000;-1.6331e-003
 124.76;   16.74000;-1.6255e-003
 125.761;   16.92000;-1.6185e-003
 126.74;   17.10000;-1.6107e-003
 127.728;   17.28000;-1.6017e-003
 128.711;   17.46000;-1.5912e-003
 129.683;   17.64000;-1.5818e-003
 130.658;   17.82000;-1.5723e-003
 131.604;   18.00000;-1.5613e-003
 132.571;   18.18000;-1.5500e-003
 133.528;   18.36000;-1.5380e-003
 134.479;   18.54000;-1.5296e-003
 135.416;   18.72000;-1.5154e-003
 136.353;   18.90000;-1.5033e-003
 137.3;   19.08000;-1.4897e-003
 138.232;   19.26000;-1.4770e-003
 139.163;   19.44000;-1.4632e-003
 140.083;   19.62000;-1.4519e-003
 141.002;   19.80000;-1.4361e-003
 141.907;   19.98000;-1.4229e-003
 142.814;   20.16000;-1.4101e-003
 143.731;   20.34000;-1.3939e-003
 144.617;   20.52000;-1.3795e-003
 145.524;   20.70000;-1.3663e-003
 146.426;   20.88000;-1.3519e-003
 147.321;   21.06000;-1.3372e-003
 148.225;   21.24000;-1.3229e-003
 149.108;   21.42000;-1.3092e-003
 149.983;   21.60000;-1.2949e-003
 150.868;   21.78000;-1.2792e-003
 151.766;   21.96000;-1.2651e-003
 152.64;   22.14000;-1.2509e-003
 153.52;   22.32000;-1.2369e-003
 154.41;   22.50000;-1.2223e-003
 155.283;   22.68000;-1.2096e-003
 156.159;   22.86000;-1.1920e-003
 157.034;   23.04000;-1.1775e-003
 157.918;   23.22000;-1.1637e-003
 158.786;   23.40000;-1.1493e-003
 159.657;   23.58000;-1.1354e-003
 160.536;   23.76000;-1.1208e-003
 161.412;   23.94000;-1.1059e-003
 162.273;   24.12000;-1.0937e-003
 163.144;   24.30000;-1.0794e-003
 164.02;   24.48000;-1.0662e-003
 164.896;   24.66000;-1.0520e-003
 165.782;   24.84000;-1.0392e-003
 166.64;   25.02000;-1.0248e-003
 167.515;   25.20000;-1.0131e-003
 168.388;   25.38000;-9.9954e-004
 169.257;   25.56000;-9.8663e-004
 170.148;   25.74000;-9.7546e-004
 171.009;   25.92000;-9.6395e-004
 171.891;   26.10000;-9.4975e-004
 172.763;   26.28000;-9.3775e-004
 173.637;   26.46000;-9.2612e-004
 174.523;   26.64000;-9.2085e-004
 175.4;   26.82000;-9.1694e-004
 176.27;   27.00000;-9.0532e-004
 177.149;   27.18000;-8.9315e-004
 178.032;   27.36000;-8.8194e-004
 178.91;   27.54000;-8.7031e-004
 179.801;   27.72000;-8.6130e-004
 180.671;   27.90000;-8.4929e-004
 181.561;   28.08000;-8.3858e-004
 182.43;   28.26000;-8.2737e-004
 183.31;   28.44000;-8.1761e-004
 184.204;   28.62000;-8.1009e-004
 185.089;   28.80000;-7.9730e-004
 185.976;   28.98000;-7.8630e-004
 186.856;   29.16000;-7.7758e-004
 187.743;   29.34000;-7.6661e-004
 188.628;   29.52000;-7.5889e-004
 189.518;   29.70000;-7.4838e-004
 190.4;   29.88000;-7.4049e-004
 191.292;   30.06000;-7.3194e-004
 192.183;   30.24000;-7.2334e-004
 193.061;   30.42000;-7.1807e-004
 193.96;   30.60000;-7.0581e-004
 194.85;   30.78000;-6.9726e-004
 195.733;   30.96000;-6.8796e-004
 196.633;   31.14000;-6.7895e-004
 197.533;   31.32000;-6.7155e-004
 198.414;   31.50000;-6.6333e-004
 199.311;   31.68000;-6.5249e-004
 200.196;   31.86000;-6.4439e-004
 201.091;   32.04000;-6.3729e-004
 202;   32.22000;-6.3123e-004
 202.881;   32.40000;-6.2118e-004
 203.771;   32.58000;-6.1412e-004
 204.672;   32.76000;-6.0444e-004
 205.567;   32.94000;-5.9772e-004
 206.461;   33.12000;-5.9016e-004
 207.357;   33.30000;-5.8281e-004
 208.261;   33.48000;-5.7704e-004
 209.156;   33.66000;-5.6628e-004
 210.056;   33.84000;-5.6038e-004
 210.964;   34.02000;-5.5473e-004
 211.867;   34.20000;-5.4921e-004
 212.761;   34.38000;-5.4248e-004
 213.66;   34.56000;-5.3567e-004
 214.555;   34.74000;-5.2658e-004
 215.461;   34.92000;-5.1827e-004
 216.368;   35.10000;-5.1354e-004
 217.264;   35.28000;-5.0577e-004
 218.178;   35.46000;-4.9880e-004
 219.071;   35.64000;-4.9294e-004
 219.975;   35.82000;-4.8576e-004
 220.876;   36.00000;-4.7766e-004
 221.776;   36.18000;-4.7164e-004
 222.687;   36.36000;-4.6391e-004
 223.597;   36.54000;-4.5723e-004
 224.496;   36.72000;-4.4958e-004
 225.399;   36.90000;-4.4277e-004
 226.298;   37.08000;-4.3434e-004
 227.202;   37.26000;-4.2658e-004
 228.1;   37.44000;-4.1765e-004
 229.004;   37.62000;-4.0963e-004
 229.915;   37.80000;-4.4273e-004
 230.829;   37.98000;-4.3966e-004
 231.724;   38.16000;-4.3252e-004
 232.631;   38.34000;-4.2496e-004
 233.539;   38.52000;-4.1769e-004
 234.44;   38.70000;-4.1109e-004
 235.335;   38.88000;-3.9934e-004
 236.242;   39.06000;-3.9253e-004
 237.148;   39.24000;-3.8239e-004
 238.06;   39.42000;-3.7591e-004
 238.958;   39.60000;-3.6657e-004
 239.869;   39.78000;-3.5752e-004
 240.771;   39.96000;-3.5087e-004
 241.684;   40.14000;-3.4207e-004
 242.583;   40.32000;-3.3459e-004
 243.481;   40.50000;-3.2683e-004
 244.386;   40.68000;-3.2027e-004
 245.289;   40.86000;-3.1138e-004
 246.189;   41.04000;-3.0361e-004
 247.105;   41.22000;-2.9855e-004
 247.999;   41.40000;-2.9028e-004
 248.896;   41.58000;-2.8140e-004
 249.81;   41.76000;-2.7554e-004
 250.715;   41.94000;-2.6765e-004
 251.62;   42.12000;-2.5901e-004
 252.519;   42.30000;-2.5299e-004
 253.429;   42.48000;-2.4493e-004
 254.327;   42.66000;-2.3580e-004
 255.222;   42.84000;-2.2907e-004
 256.137;   43.02000;-2.1960e-004
 257.035;   43.20000;-2.1192e-004
 257.936;   43.38000;-2.0610e-004
 258.834;   43.56000;-1.9552e-004
 259.74;   43.74000;-1.8866e-004
 260.638;   43.92000;-1.8044e-004
 261.552;   44.10000;-1.7512e-004
 262.445;   44.28000;-1.6699e-004
 263.345;   44.46000;-1.5959e-004
 264.254;   44.64000;-1.5361e-004
 265.15;   44.82000;-1.4493e-004
 266.051;   45.00000;-1.3841e-004
 266.951;   45.18000;-1.2824e-004
 267.846;   45.36000;-1.2409e-004
 268.751;   45.54000;-1.1790e-004
 269.659;   45.72000;-1.0889e-004
 270.56;   45.90000;-1.0170e-004
 271.456;   46.08000;-9.5598e-005
 272.354;   46.26000;-8.8829e-005
 273.263;   46.44000;-7.9610e-005
 274.161;   46.62000;-7.1221e-005
 275.063;   46.80000;-6.1047e-005
 275.96;   46.98000;-5.6935e-005
 276.864;   47.16000;-4.9211e-005
 277.771;   47.34000;-3.9784e-005
 278.668;   47.52000;-3.1728e-005
 279.569;   47.70000;-2.2924e-005
 280.469;   47.88000;-1.6071e-005
 281.361;   48.06000;-9.3439e-006
 282.266;   48.24000;-2.2010e-006
 283.174;   48.42000; 6.0631e-006
 284.067;   48.60000; 1.5282e-005
 284.964;   48.78000; 2.2633e-005
 285.876;   48.96000; 3.1022e-005
 286.77;   49.14000; 3.6254e-005
 287.672;   49.32000; 4.6595e-005
 288.567;   49.50000; 5.4776e-005
 289.474;   49.68000; 6.1379e-005
 290.379;   49.86000; 6.8895e-005
 291.275;   50.04000; 7.7741e-005
 292.176;   50.22000; 8.5341e-005
 293.074;   50.40000; 9.0864e-005
 293.969;   50.58000; 9.9585e-005
 294.871;   50.76000; 1.0731e-004
 295.773;   50.94000; 1.1076e-004
 296.676;   51.12000; 1.2093e-004
 297.57;   51.30000; 1.2749e-004
 298.477;   51.48000; 1.3202e-004
 299.376;   51.66000; 1.4207e-004
 300.283;   51.84000; 1.5249e-004
 301.174;   52.02000; 1.5789e-004
 302.078;   52.20000; 1.6537e-004
 302.981;   52.38000; 1.7292e-004
 303.882;   52.56000; 1.7919e-004
 304.773;   52.74000; 1.8895e-004
 305.682;   52.92000; 1.9369e-004
 306.577;   53.10000; 2.0299e-004
 307.479;   53.28000; 2.0972e-004
 308.382;   53.46000; 2.1566e-004
 309.281;   53.64000; 2.2367e-004
 310.185;   53.82000; 2.2907e-004
 311.094;   54.00000; 2.3767e-004
 311.993;   54.18000; 2.4568e-004
 312.884;   54.36000; 2.5216e-004
 313.791;   54.54000; 2.6196e-004
 314.676;   54.72000; 2.6628e-004
 315.587;   54.90000; 2.7255e-004
 316.494;   55.08000; 2.8090e-004
 317.396;   55.26000; 2.8725e-004
 318.294;   55.44000; 2.9385e-004
 319.192;   55.62000; 2.9992e-004
 320.092;   55.80000; 3.0951e-004
 321;   55.98000; 3.1599e-004
 321.89;   56.16000; 3.2151e-004
 322.786;   56.34000; 3.3019e-004
 323.694;   56.52000; 3.3738e-004
 324.595;   56.70000; 3.4481e-004
 325.487;   56.88000; 3.4817e-004
 326.394;   57.06000; 3.5685e-004
 327.303;   57.24000; 3.6092e-004
 328.187;   57.42000; 3.7056e-004
 329.09;   57.60000; 3.7662e-004
 329.984;   57.78000; 3.8185e-004
 330.885;   57.96000; 3.9157e-004
 331.792;   58.14000; 3.9626e-004
 332.688;   58.32000; 4.0552e-004
 333.593;   58.50000; 4.0810e-004
 334.495;   58.68000; 4.1794e-004
 335.392;   58.86000; 4.2512e-004
 336.285;   59.04000; 4.3214e-004
 337.192;   59.22000; 4.3929e-004
 338.084;   59.40000; 4.4635e-004
 338.99;   59.58000; 4.5170e-004
 339.889;   59.76000; 4.5831e-004
 340.784;   59.94000; 4.6669e-004
 341.691;   60.12000; 4.7189e-004
 342.592;   60.30000; 4.7936e-004
 343.491;   60.48000; 4.8285e-004
 344.403;   60.66000; 4.9190e-004
 345.299;   60.84000; 5.0004e-004
 346.2;   61.02000; 5.0519e-004
 347.101;   61.20000; 5.1221e-004
 347.994;   61.38000; 5.1815e-004
 348.897;   61.56000; 5.2471e-004
 349.792;   61.74000; 5.3351e-004
 350.69;   61.92000; 5.4028e-004
 351.597;   62.10000; 5.4506e-004
 352.484;   62.28000; 5.5349e-004
 353.397;   62.46000; 5.5955e-004
 354.296;   62.64000; 5.6678e-004
 355.203;   62.82000; 5.7255e-004
 356.094;   63.00000; 5.7915e-004
 356.994;   63.18000; 5.8326e-004
 357.9;   63.36000; 5.9107e-004
 358.792;   63.54000; 5.9672e-004
 359.688;   63.72000; 6.0291e-004
 360.589;   63.90000; 6.1005e-004
 361.493;   64.08000; 6.1786e-004
 362.397;   64.26000; 6.2471e-004
 363.299;   64.44000; 6.3148e-004
 364.195;   64.62000; 6.3920e-004
 365.097;   64.80000; 6.4232e-004
 366.002;   64.98000; 6.5066e-004
 366.899;   65.16000; 6.5814e-004
 367.812;   65.34000; 6.6321e-004
 368.703;   65.52000; 6.6944e-004
 369.591;   65.70000; 6.7670e-004
 370.508;   65.88000; 6.8368e-004
 371.398;   66.06000; 6.8821e-004
 372.301;   66.24000; 6.9352e-004
 373.201;   66.42000; 7.0087e-004
 374.1;   66.60000; 7.0901e-004
 374.999;   66.78000; 7.1408e-004
 375.9;   66.96000; 7.1802e-004
 376.801;   67.14000; 7.2716e-004
 377.697;   67.32000; 7.3194e-004
 378.596;   67.50000; 7.4124e-004
 379.499;   67.68000; 7.4630e-004
 380.405;   67.86000; 7.5233e-004
 381.302;   68.04000; 7.5718e-004
 382.207;   68.22000; 7.6603e-004
 383.1;   68.40000; 7.7060e-004
 384.002;   68.58000; 7.7774e-004
 384.902;   68.76000; 7.8484e-004
 385.799;   68.94000; 7.8933e-004
 386.7;   69.12000; 7.9718e-004
 387.606;   69.30000; 8.0349e-004
 388.504;   69.48000; 8.0785e-004
 389.402;   69.66000; 8.1462e-004
 390.302;   69.84000; 8.2205e-004
 391.202;   70.02000; 8.2890e-004
 392.107;   70.20000; 8.3542e-004
 393.004;   70.38000; 8.4066e-004
 393.904;   70.56000; 8.4560e-004
 394.798;   70.74000; 8.5125e-004
 395.704;   70.92000; 8.5822e-004
 396.605;   71.10000; 8.6437e-004
 397.502;   71.28000; 8.7421e-004
 398.407;   71.46000; 8.7778e-004
 399.303;   71.64000; 8.8501e-004
 400.204;   71.82000; 8.9178e-004
 401.104;   72.00000; 8.9601e-004
 402.008;   72.18000; 9.0336e-004
 402.901;   72.36000; 9.1042e-004
 403.802;   72.54000; 9.1532e-004
 404.707;   72.72000; 9.2409e-004
 405.607;   72.90000; 9.2745e-004
 406.493;   73.08000; 9.3501e-004
 407.401;   73.26000; 9.4169e-004
 408.296;   73.44000; 9.4805e-004
 409.213;   73.62000; 9.5444e-004
 410.104;   73.80000; 9.6084e-004
 411;   73.98000; 9.6495e-004
 411.902;   74.16000; 9.7292e-004
 412.81;   74.34000; 9.7874e-004
 413.712;   74.52000; 9.8634e-004
 414.602;   74.70000; 9.9273e-004
 415.501;   74.88000; 9.9689e-004
 416.407;   75.06000; 1.0015e-003
 417.303;   75.24000; 1.0110e-003
 418.209;   75.42000; 1.0154e-003
 419.105;   75.60000; 1.0227e-003
 420.012;   75.78000; 1.0277e-003
 420.904;   75.96000; 1.0336e-003
 421.802;   76.14000; 1.0388e-003
 422.694;   76.32000; 1.0453e-003
 423.596;   76.50000; 1.0541e-003
 424.496;   76.68000; 1.0568e-003
 425.404;   76.86000; 1.0652e-003
 426.305;   77.04000; 1.0690e-003
 427.2;   77.22000; 1.0785e-003
 428.107;   77.40000; 1.0820e-003
 429.005;   77.58000; 1.0886e-003
 429.899;   77.76000; 1.0951e-003
 430.795;   77.94000; 1.1013e-003
 431.701;   78.12000; 1.1079e-003
 432.597;   78.30000; 1.1149e-003
 433.49;   78.48000; 1.1223e-003
 434.388;   78.66000; 1.1296e-003
 435.295;   78.84000; 1.1322e-003
 436.205;   79.02000; 1.1379e-003
 437.09;   79.20000; 1.1446e-003
 437.996;   79.38000; 1.1504e-003
 438.898;   79.56000; 1.1591e-003
 439.794;   79.74000; 1.1621e-003
 440.698;   79.92000; 1.1707e-003
 441.593;   80.10000; 1.1757e-003
 442.492;   80.28000; 1.1811e-003
 443.393;   80.46000; 1.1871e-003
 444.289;   80.64000; 1.1917e-003
 445.195;   80.82000; 1.1959e-003
 446.098;   81.00000; 1.2036e-003
 446.995;   81.18000; 1.2069e-003
 447.892;   81.36000; 1.2147e-003
 448.791;   81.54000; 1.2210e-003
 449.697;   81.72000; 1.2272e-003
 450.593;   81.90000; 1.2326e-003
 451.489;   82.08000; 1.2388e-003
 452.394;   82.26000; 1.2448e-003
 453.289;   82.44000; 1.2505e-003
 454.192;   82.62000; 1.2558e-003
 455.087;   82.80000; 1.2626e-003
 455.989;   82.98000; 1.2677e-003
 456.893;   83.16000; 1.2752e-003
 457.79;   83.34000; 1.2784e-003
 458.684;   83.52000; 1.2867e-003
 459.577;   83.70000; 1.2938e-003
 460.491;   83.88000; 1.3006e-003
 461.385;   84.06000; 1.3050e-003
 462.276;   84.24000; 1.3097e-003
 463.186;   84.42000; 1.3147e-003
 464.077;   84.60000; 1.3228e-003
 464.976;   84.78000; 1.3288e-003
 465.88;   84.96000; 1.3364e-003
 466.775;   85.14000; 1.3420e-003
 467.681;   85.32000; 1.3502e-003
 468.581;   85.50000; 1.3546e-003
 469.487;   85.68000; 1.3577e-003
 470.379;   85.86000; 1.3643e-003
 471.274;   86.04000; 1.3725e-003
 472.184;   86.22000; 1.3781e-003
 473.086;   86.40000; 1.3850e-003
 473.974;   86.58000; 1.3905e-003
 474.876;   86.76000; 1.3970e-003
 475.781;   86.94000; 1.4032e-003
 476.671;   87.12000; 1.4069e-003
 477.566;   87.30000; 1.4158e-003
 478.473;   87.48000; 1.4214e-003
 479.387;   87.66000; 1.4259e-003
 480.269;   87.84000; 1.4338e-003
 481.17;   88.02000; 1.4380e-003
 482.074;   88.20000; 1.4421e-003
 482.983;   88.38000; 1.4502e-003
 483.873;   88.56000; 1.4584e-003
 484.775;   88.74000; 1.4630e-003
 485.663;   88.92000; 1.4694e-003
 486.571;   89.10000; 1.4740e-003
 487.469;   89.28000; 1.4819e-003
 488.366;   89.46000; 1.4877e-003
 489.262;   89.64000; 1.4936e-003
 490.171;   89.82000; 1.5013e-003
 491.062;   90.00000; 1.5029e-003
 491.965;   90.18000; 1.5121e-003
 492.875;   90.36000; 1.5188e-003
 493.766;   90.54000; 1.5218e-003
 494.676;   90.72000; 1.5307e-003
 495.562;   90.90000; 1.5365e-003
 496.463;   91.08000; 1.5417e-003
 497.358;   91.26000; 1.5482e-003
 498.265;   91.44000; 1.5536e-003
 499.157;   91.62000; 1.5620e-003
 500.067;   91.80000; 1.5644e-003
 500.963;   91.98000; 1.5715e-003
 501.859;   92.16000; 1.5777e-003
 502.769;   92.34000; 1.5848e-003
 503.663;   92.52000; 1.5904e-003
 504.561;   92.70000; 1.5927e-003
 505.455;   92.88000; 1.6039e-003
 506.358;   93.06000; 1.6062e-003
 507.266;   93.24000; 1.6145e-003
 508.154;   93.42000; 1.6198e-003
 509.063;   93.60000; 1.6246e-003
 509.967;   93.78000; 1.6329e-003
 510.855;   93.96000; 1.6385e-003
 511.762;   94.14000; 1.6447e-003
 512.659;   94.32000; 1.6483e-003
 513.555;   94.50000; 1.6549e-003
 514.465;   94.68000; 1.6613e-003
 515.361;   94.86000; 1.6664e-003
 516.263;   95.04000; 1.6716e-003
 517.16;   95.22000; 1.6774e-003
 518.061;   95.40000; 1.6843e-003
 518.967;   95.58000; 1.6907e-003
 519.859;   95.76000; 1.6969e-003
 520.754;   95.94000; 1.7051e-003
 521.659;   96.12000; 1.7088e-003
 522.554;   96.30000; 1.7153e-003
 523.457;   96.48000; 1.7211e-003
 524.352;   96.66000; 1.7261e-003
 525.259;   96.84000; 1.7336e-003
 526.159;   97.02000; 1.7389e-003
 527.056;   97.20000; 1.7451e-003
 527.957;   97.38000; 1.7507e-003
 528.854;   97.56000; 1.7555e-003
 529.752;   97.74000; 1.7618e-003
 530.663;   97.92000; 1.7674e-003
 531.557;   98.10000; 1.7737e-003
 532.458;   98.28000; 1.7795e-003
 533.36;   98.46000; 1.7832e-003
 534.256;   98.64000; 1.7921e-003
 535.15;   98.82000; 1.7985e-003
 536.059;   99.00000; 1.8039e-003
 536.959;   99.18000; 1.8110e-003
 537.852;   99.36000; 1.8167e-003
 538.754;   99.54000; 1.8197e-003
 539.656;   99.72000; 1.8271e-003
 540.555;   99.90000; 1.8313e-003
 541.452;  100.08; 1.8374e-003
 542.354;  100.26; 1.8428e-003
 543.254;  100.44; 1.8520e-003
 544.151;  100.62; 1.8561e-003
 545.058;  100.8; 1.8656e-003
 545.953;  100.98; 1.8701e-003
 546.855;  101.16; 1.8742e-003
 547.752;  101.34; 1.8797e-003
 548.652;  101.52; 1.8875e-003
 549.546;  101.7; 1.8933e-003
 550.446;  101.88; 1.8982e-003
 551.353;  102.06; 1.9052e-003
 552.255;  102.24; 1.9121e-003
 553.148;  102.42; 1.9193e-003
 554.052;  102.6; 1.9203e-003
 554.96;  102.78; 1.9274e-003
 555.843;  102.96; 1.9359e-003
 556.75;  103.14; 1.9422e-003
 557.657;  103.32; 1.9480e-003
 558.547;  103.5; 1.9540e-003
 559.452;  103.68; 1.9589e-003
 560.353;  103.86; 1.9666e-003
 561.254;  104.04; 1.9699e-003
 562.142;  104.22; 1.9787e-003
 563.053;  104.4; 1.9843e-003
 563.951;  104.58; 1.9908e-003
 564.855;  104.76; 1.9943e-003
 565.753;  104.94; 1.9980e-003
 566.654;  105.12; 2.0059e-003
 567.543;  105.3; 2.0096e-003
 568.453;  105.48; 2.0208e-003
 569.349;  105.66; 2.0249e-003
 570.243;  105.84; 2.0316e-003
 571.15;  106.02; 2.0333e-003
 572.047;  106.2; 2.0435e-003
 572.944;  106.38; 2.0488e-003
 573.845;  106.56; 2.0536e-003
 574.748;  106.74; 2.0614e-003
 575.639;  106.92; 2.0677e-003
 576.55;  107.1; 2.0723e-003
 577.45;  107.28; 2.0780e-003
 578.351;  107.46; 2.0856e-003
 579.25;  107.64; 2.0907e-003
 580.149;  107.82; 2.0965e-003
 581.053;  108; 2.1000e-003
 581.942;  108.18; 2.1049e-003
 582.838;  108.36; 2.1162e-003
 583.746;  108.54; 2.1195e-003
 584.647;  108.72; 2.1214e-003
 585.539;  108.9; 2.1315e-003
 586.442;  109.08; 2.1388e-003
 587.337;  109.26; 2.1423e-003
 588.227;  109.44; 2.1507e-003
 589.139;  109.62; 2.1534e-003
 590.042;  109.8; 2.1611e-003
 590.932;  109.98; 2.1630e-003
 591.83;  110.16; 2.1742e-003
 592.733;  110.34; 2.1798e-003
 593.632;  110.52; 2.1848e-003
 594.534;  110.7; 2.1913e-003
 595.434;  110.88; 2.1985e-003
 596.324;  111.06; 2.2047e-003
 597.225;  111.24; 2.2123e-003
 598.133;  111.42; 2.2150e-003
 599.028;  111.6; 2.2241e-003
 599.927;  111.78; 2.2302e-003
 600.825;  111.96; 2.2334e-003
 601.731;  112.14; 2.2421e-003
 602.612;  112.32; 2.2439e-003
 603.525;  112.5; 2.2526e-003
 604.416;  112.68; 2.2598e-003
 605.312;  112.86; 2.2660e-003
 606.207;  113.04; 2.2714e-003
 607.118;  113.22; 2.2796e-003
 608.009;  113.4; 2.2853e-003
 608.907;  113.58; 2.2900e-003
 609.81;  113.76; 2.2954e-003
 610.712;  113.94; 2.3049e-003
 611.61;  114.12; 2.3081e-003
 612.513;  114.3; 2.3143e-003
 613.395;  114.48; 2.3178e-003
 614.308;  114.66; 2.3252e-003
 615.212;  114.84; 2.3304e-003
 616.1;  115.02; 2.3398e-003
 617.005;  115.2; 2.3462e-003
 617.9;  115.38; 2.3509e-003
 618.798;  115.56; 2.3564e-003
 619.698;  115.74; 2.3628e-003
 620.595;  115.92; 2.3712e-003
 621.493;  116.1; 2.3787e-003
 622.391;  116.28; 2.3836e-003
 623.293;  116.46; 2.3895e-003
 624.179;  116.64; 2.3948e-003
 625.09;  116.82; 2.4035e-003
 625.987;  117; 2.4074e-003
 626.881;  117.18; 2.4155e-003
 627.774;  117.36; 2.4191e-003
 628.682;  117.54; 2.4257e-003
 629.59;  117.72; 2.4337e-003
 630.475;  117.9; 2.4396e-003
 631.383;  118.08; 2.4451e-003
 632.278;  118.26; 2.4514e-003
 633.174;  118.44; 2.4556e-003
 634.076;  118.62; 2.4657e-003
 634.976;  118.8; 2.4668e-003
 635.876;  118.98; 2.4764e-003
 636.771;  119.16; 2.4835e-003
 637.677;  119.34; 2.4884e-003
 638.561;  119.52; 2.4951e-003
 639.467;  119.7; 2.5025e-003
 640.369;  119.88; 2.5043e-003
 641.264;  120.06; 2.5153e-003
 642.167;  120.24; 2.5221e-003
 643.068;  120.42; 2.5289e-003
 643.967;  120.6; 2.5338e-003
 644.863;  120.78; 2.5349e-003
 645.768;  120.96; 2.5441e-003
 646.663;  121.14; 2.5479e-003
 647.557;  121.32; 2.5569e-003
 648.462;  121.5; 2.5629e-003
 649.346;  121.68; 2.5702e-003
 650.264;  121.86; 2.5774e-003
 651.16;  122.04; 2.5813e-003
 652.068;  122.22; 2.5863e-003
 652.953;  122.4; 2.5946e-003
 653.857;  122.58; 2.5909e-003
 654.756;  122.76; 2.6075e-003
 655.647;  122.94; 2.6134e-003
 656.543;  123.12; 2.6174e-003
 657.454;  123.3; 2.6240e-003
 658.347;  123.48; 2.6299e-003
 659.25;  123.66; 2.6347e-003
 660.154;  123.84; 2.6447e-003
 661.04;  124.02; 2.6510e-003
 661.957;  124.2; 2.6548e-003
 662.847;  124.38; 2.6613e-003
 663.741;  124.56; 2.6697e-003
 664.651;  124.74; 2.6762e-003
 665.544;  124.92; 2.6744e-003
 666.441;  125.1; 2.6888e-003
 667.35;  125.28; 2.6956e-003
 668.249;  125.46; 2.7020e-003
 669.136;  125.64; 2.7081e-003
 670.042;  125.82; 2.7147e-003
 670.944;  126; 2.7197e-003
 671.839;  126.18; 2.7275e-003
 672.739;  126.36; 2.7340e-003
 673.631;  126.54; 2.7377e-003
 674.525;  126.72; 2.7454e-003
 675.438;  126.9; 2.7520e-003
 676.335;  127.08; 2.7586e-003
 677.242;  127.26; 2.7642e-003
 678.133;  127.44; 2.7724e-003
 679.046;  127.62; 2.7767e-003
 679.93;  127.8; 2.7831e-003
 680.829;  127.98; 2.7895e-003
 681.725;  128.16; 2.7967e-003
 682.627;  128.34; 2.8039e-003
 683.523;  128.52; 2.8105e-003
 684.43;  128.7; 2.8169e-003
 685.323;  128.88; 2.8243e-003
 686.223;  129.06; 2.8235e-003
 687.122;  129.24; 2.8334e-003
 688.024;  129.42; 2.8364e-003
 688.922;  129.6; 2.8458e-003
 689.817;  129.78; 2.8554e-003
 690.717;  129.96; 2.8599e-003
 691.628;  130.14; 2.8671e-003
 692.507;  130.32; 2.8725e-003
 693.423;  130.5; 2.8757e-003
 694.303;  130.68; 2.8857e-003
 695.2;  130.86; 2.8922e-003
 696.109;  131.04; 2.8973e-003
 696.992;  131.22; 2.9064e-003
 697.908;  131.4; 2.9117e-003
 698.804;  131.58; 2.9171e-003
 699.71;  131.76; 2.9217e-003
 700.606;  131.94; 2.9278e-003
 701.511;  132.12; 2.9380e-003
 702.402;  132.3; 2.9417e-003
 703.29;  132.48; 2.9467e-003
 704.2;  132.66; 2.9568e-003
 705.107;  132.84; 2.9631e-003
 705.995;  133.02; 2.9696e-003
 706.895;  133.2; 2.9768e-003
 707.803;  133.38; 2.9824e-003
 708.7;  133.56; 2.9891e-003
 709.603;  133.74; 2.9977e-003
 710.498;  133.92; 3.0028e-003
 711.397;  134.1; 3.0070e-003
 712.296;  134.28; 3.0166e-003
 713.192;  134.46; 3.0218e-003
 714.09;  134.64; 3.0248e-003
 714.991;  134.82; 3.0326e-003
 715.891;  135; 3.0381e-003
 716.789;  135.18; 3.0475e-003
 717.688;  135.36; 3.0522e-003
 718.577;  135.54; 3.0596e-003
 719.479;  135.72; 3.0659e-003
 720.386;  135.9; 3.0695e-003
 721.279;  136.08; 3.0787e-003
 722.185;  136.26; 3.0864e-003
 723.08;  136.44; 3.0926e-003
 723.977;  136.62; 3.0985e-003
 724.878;  136.8; 3.1051e-003
 725.781;  136.98; 3.1096e-003
 726.675;  137.16; 3.1171e-003
 727.582;  137.34; 3.1240e-003
 728.483;  137.52; 3.1254e-003
 729.372;  137.7; 3.1380e-003
 730.274;  137.88; 3.1422e-003
 731.177;  138.06; 3.1472e-003
 732.077;  138.24; 3.1558e-003
 732.968;  138.42; 3.1637e-003
 733.875;  138.6; 3.1652e-003
 734.762;  138.78; 3.1717e-003
 735.659;  138.96; 3.1775e-003
 736.561;  139.14; 3.1868e-003
 737.464;  139.32; 3.1934e-003
 738.365;  139.5; 3.2031e-003
 739.269;  139.68; 3.2035e-003
 740.154;  139.86; 3.2148e-003
 741.057;  140.04; 3.2183e-003
 741.968;  140.22; 3.2266e-003
 742.867;  140.4; 3.2319e-003
 743.756;  140.58; 3.2345e-003
 744.658;  140.76; 3.2412e-003
 745.551;  140.94; 3.2483e-003
 746.455;  141.12; 3.2560e-003
 747.352;  141.3; 3.2626e-003
 748.244;  141.48; 3.2690e-003
 749.146;  141.66; 3.2735e-003
 750.055;  141.84; 3.2824e-003
 750.94;  142.02; 3.2887e-003
 751.837;  142.2; 3.2957e-003
 752.737;  142.38; 3.2971e-003
 753.63;  142.56; 3.3063e-003
 754.545;  142.74; 3.3088e-003
 755.44;  142.92; 3.3206e-003
 756.333;  143.1; 3.3280e-003
 757.23;  143.28; 3.3312e-003
 758.132;  143.46; 3.3381e-003
 759.025;  143.64; 3.3437e-003
 759.928;  143.82; 3.3527e-003
 760.835;  144; 3.3517e-003
 761.72;  144.18; 3.3621e-003
 762.616;  144.36; 3.3660e-003
 763.52;  144.54; 3.3771e-003
 764.415;  144.72; 3.3785e-003
 765.329;  144.9; 3.3860e-003
 766.226;  145.08; 3.3940e-003
 767.112;  145.26; 3.3961e-003
 768.029;  145.44; 3.4061e-003
 768.907;  145.62; 3.4114e-003
 769.81;  145.8; 3.4187e-003
 770.716;  145.98; 3.4241e-003
 771.619;  146.16; 3.4296e-003
 772.511;  146.34; 3.4364e-003
 773.414;  146.52; 3.4401e-003
 774.309;  146.7; 3.4481e-003
 775.213;  146.88; 3.4523e-003
 776.113;  147.06; 3.4548e-003
 777.01;  147.24; 3.4656e-003
 777.902;  147.42; 3.4730e-003
 778.808;  147.6; 3.4803e-003
 779.708;  147.78; 3.4826e-003
 780.603;  147.96; 3.4934e-003
 781.5;  148.14; 3.4978e-003
 782.396;  148.32; 3.5047e-003
 783.287;  148.5; 3.5106e-003
 784.185;  148.68; 3.5131e-003
 785.098;  148.86; 3.5244e-003
 785.995;  149.04; 3.5290e-003
 786.897;  149.22; 3.5353e-003
 787.79;  149.4; 3.5407e-003
 788.692;  149.58; 3.5459e-003
 789.594;  149.76; 3.5543e-003
 790.481;  149.94; 3.5578e-003
 791.384;  150.12; 3.5608e-003
 792.293;  150.3; 3.5711e-003
 793.193;  150.48; 3.5738e-003
 794.086;  150.66; 3.5802e-003
 794.998;  150.84; 3.5848e-003
 795.886;  151.02; 3.5882e-003
 796.793;  151.2; 3.5975e-003
 797.696;  151.38; 3.6028e-003
 798.588;  151.56; 3.6068e-003
 799.485;  151.74; 3.6131e-003
 800.389;  151.92; 3.6175e-003
 801.287;  152.1; 3.6226e-003
 802.194;  152.28; 3.6245e-003
 803.097;  152.46; 3.6307e-003
 803.982;  152.64; 3.6345e-003
 804.887;  152.82; 3.6457e-003
 805.786;  153; 3.6492e-003
 806.689;  153.18; 3.6491e-003
 807.585;  153.36; 3.6603e-003
 808.489;  153.54; 3.6649e-003
 809.383;  153.72; 3.6671e-003
 810.29;  153.9; 3.6721e-003
 811.185;  154.08; 3.6774e-003
 812.082;  154.26; 3.6846e-003
 812.986;  154.44; 3.6880e-003
 813.873;  154.62; 3.6939e-003
 814.782;  154.8; 3.7025e-003
 815.687;  154.98; 3.7026e-003
 816.579;  155.16; 3.7116e-003
 817.481;  155.34; 3.7140e-003
 818.382;  155.52; 3.7209e-003
 819.278;  155.7; 3.7258e-003
 820.184;  155.88; 3.7335e-003
 821.085;  156.06; 3.7388e-003
 821.974;  156.24; 3.7430e-003
 822.88;  156.42; 3.7474e-003
 823.781;  156.6; 3.7512e-003
 824.67;  156.78; 3.7601e-003
 825.582;  156.96; 3.7667e-003
 826.478;  157.14; 3.7680e-003
 827.369;  157.32; 3.7771e-003
 828.277;  157.5; 3.7821e-003
 829.161;  157.68; 3.7877e-003
 830.075;  157.86; 3.7963e-003
 830.966;  158.04; 3.8010e-003
 831.879;  158.22; 3.8049e-003
 832.766;  158.4; 3.8131e-003
 833.671;  158.58; 3.8163e-003
 834.562;  158.76; 3.8265e-003
 835.465;  158.94; 3.8313e-003
 836.363;  159.12; 3.8325e-003
 837.255;  159.3; 3.8377e-003
 838.161;  159.48; 3.8416e-003
 839.07;  159.66; 3.8510e-003
 839.962;  159.84; 3.8581e-003
 840.863;  160.02; 3.8620e-003
 841.768;  160.2; 3.8717e-003
 842.655;  160.38; 3.8786e-003
 843.56;  160.56; 3.8835e-003
 844.457;  160.74; 3.8880e-003
 845.347;  160.92; 3.8958e-003
 846.253;  161.1; 3.8979e-003
 847.152;  161.28; 3.9057e-003
 848.053;  161.46; 3.9095e-003
 848.953;  161.64; 3.9184e-003
 849.849;  161.82; 3.9229e-003
 850.747;  162; 3.9301e-003
 851.644;  162.18; 3.9377e-003
 852.54;  162.36; 3.9402e-003
 853.442;  162.54; 3.9488e-003
 854.335;  162.72; 3.9554e-003
 855.23;  162.9; 3.9568e-003
 856.14;  163.08; 3.9665e-003
 857.039;  163.26; 3.9733e-003
 857.931;  163.44; 3.9730e-003
 858.842;  163.62; 3.9829e-003
 859.73;  163.8; 3.9889e-003
 860.632;  163.98; 3.9961e-003
 861.53;  164.16; 4.0015e-003
 862.429;  164.34; 4.0074e-003
 863.324;  164.52; 4.0141e-003
 864.22;  164.7; 4.0198e-003
 865.124;  164.88; 4.0285e-003
 866.019;  165.06; 4.0368e-003
 866.93;  165.24; 4.0409e-003
 867.813;  165.42; 4.0464e-003
 868.717;  165.6; 4.0504e-003
 869.624;  165.78; 4.0591e-003
 870.523;  165.96; 4.0691e-003
 871.416;  166.14; 4.0708e-003
 872.321;  166.32; 4.0808e-003
 873.222;  166.5; 4.0863e-003
 874.115;  166.68; 4.0931e-003
 875.009;  166.86; 4.1005e-003
 875.907;  167.04; 4.1042e-003
 876.811;  167.22; 4.1132e-003
 877.704;  167.4; 4.1191e-003
 878.612;  167.58; 4.1234e-003
 879.505;  167.76; 4.1350e-003
 880.402;  167.94; 4.1387e-003
 881.31;  168.12; 4.1448e-003
 882.196;  168.3; 4.1493e-003
 883.097;  168.48; 4.1587e-003
 884.002;  168.66; 4.1630e-003
 884.901;  168.84; 4.1710e-003
 885.802;  169.02; 4.1800e-003
 886.691;  169.2; 4.1880e-003
 887.59;  169.38; 4.1955e-003
 888.491;  169.56; 4.2002e-003
 889.4;  169.74; 4.2075e-003
 890.305;  169.92; 4.2129e-003
 891.193;  170.1; 4.2182e-003
 892.099;  170.28; 4.2294e-003
 892.992;  170.46; 4.2346e-003
 893.898;  170.64; 4.2415e-003
 894.799;  170.82; 4.2494e-003
 895.679;  171; 4.2570e-003
 896.581;  171.18; 4.2608e-003
 897.491;  171.36; 4.2652e-003
 898.383;  171.54; 4.2769e-003
 899.284;  171.72; 4.2804e-003
 900.18;  171.9; 4.2904e-003
 901.083;  172.08; 4.2983e-003
 901.984;  172.26; 4.3019e-003
 902.882;  172.44; 4.3080e-003
 903.785;  172.62; 4.3217e-003
 904.691;  172.8; 4.3282e-003
 905.587;  172.98; 4.3338e-003
 906.481;  173.16; 4.3406e-003
 907.387;  173.34; 4.3462e-003
 908.278;  173.52; 4.3575e-003
 909.182;  173.7; 4.3601e-003
 910.079;  173.88; 4.3728e-003
 910.978;  174.06; 4.3819e-003
 911.881;  174.24; 4.3823e-003
 912.782;  174.42; 4.3888e-003
 913.683;  174.6; 4.4002e-003
 914.588;  174.78; 4.4071e-003
 915.479;  174.96; 4.4165e-003
 916.373;  175.14; 4.4228e-003
 917.279;  175.32; 4.4313e-003
 918.167;  175.5; 4.4388e-003
 919.079;  175.68; 4.4467e-003
 919.976;  175.86; 4.4533e-003
 920.868;  176.04; 4.4620e-003
 921.77;  176.22; 4.4703e-003
 922.664;  176.4; 4.4727e-003
 923.571;  176.58; 4.4853e-003
 924.479;  176.76; 4.4874e-003
 925.368;  176.94; 4.4936e-003
 926.28;  177.12; 4.5063e-003
 927.172;  177.3; 4.5134e-003
 928.075;  177.48; 4.5188e-003
 928.973;  177.66; 4.5222e-003
 929.872;  177.84; 4.5384e-003
 930.763;  178.02; 4.5426e-003
 931.665;  178.2; 4.5494e-003
 932.557;  178.38; 4.5535e-003
 933.453;  178.56; 4.5671e-003
 934.363;  178.74; 4.5735e-003
 935.257;  178.92; 4.5799e-003
 936.165;  179.1; 4.5878e-003
 937.069;  179.28; 4.5915e-003
 937.958;  179.46; 4.6018e-003
 938.862;  179.64; 4.6119e-003
 939.75;  179.82; 4.6195e-003
 940.653;  180; 4.6270e-003
 941.553;  180.18; 4.6311e-003
 942.446;  180.36; 4.6397e-003
 943.347;  180.54; 4.6449e-003
 944.256;  180.72; 4.6549e-003
 945.142;  180.9; 4.6610e-003
 946.051;  181.08; 4.6689e-003
 946.934;  181.26; 4.6780e-003
 947.846;  181.44; 4.6841e-003
 948.739;  181.62; 4.6872e-003
 949.648;  181.8; 4.6988e-003
 950.536;  181.98; 4.7039e-003
 951.441;  182.16; 4.7096e-003
 952.341;  182.34; 4.7218e-003
 953.239;  182.52; 4.7267e-003
 954.132;  182.7; 4.7365e-003
 955.033;  182.88; 4.7461e-003
 955.932;  183.06; 4.7542e-003
 956.839;  183.24; 4.7609e-003
 957.724;  183.42; 4.7693e-003
 958.619;  183.6; 4.7725e-003
 959.515;  183.78; 4.7842e-003
 960.425;  183.96; 4.7903e-003
 961.309;  184.14; 4.7971e-003
 962.21;  184.32; 4.8075e-003
 963.126;  184.5; 4.8150e-003
 964.018;  184.68; 4.8260e-003
 964.914;  184.86; 4.8300e-003
 965.817;  185.04; 4.8380e-003
 966.711;  185.22; 4.8464e-003
 967.615;  185.4; 4.8566e-003
 968.512;  185.58; 4.8567e-003
 969.41;  185.76; 4.8680e-003
 970.309;  185.94; 4.8799e-003
 971.22;  186.12; 4.8851e-003
 972.116;  186.3; 4.8965e-003
 973.018;  186.48; 4.8981e-003
 973.912;  186.66; 4.9093e-003
 974.81;  186.84; 4.9165e-003
 975.712;  187.02; 4.9226e-003
 976.61;  187.2; 4.9319e-003
 977.509;  187.38; 4.9434e-003
 978.414;  187.56; 4.9505e-003
 979.298;  187.74; 4.9572e-003
 980.197;  187.92; 4.9654e-003
 981.109;  188.1; 4.9710e-003
 982.018;  188.28; 4.9809e-003
 982.912;  188.46; 4.9900e-003
 983.798;  188.64; 4.9996e-003
 984.71;  188.82; 5.0059e-003
 985.619;  189; 5.0108e-003
 986.508;  189.18; 5.0251e-003
 987.412;  189.36; 5.0313e-003
 988.298;  189.54; 5.0403e-003
 989.215;  189.72; 5.0473e-003
 990.119;  189.9; 5.0569e-003
 991.012;  190.08; 5.0641e-003
 991.9;  190.26; 5.0750e-003
 992.803;  190.44; 5.0755e-003
 993.697;  190.62; 5.0877e-003
 994.614;  190.8; 5.0952e-003
 995.495;  190.98; 5.1015e-003
 996.412;  191.16; 5.1079e-003
 997.299;  191.34; 5.1181e-003
 998.208;  191.52; 5.1255e-003
 999.102;  191.7; 5.1282e-003
1000;  191.88; 5.1405e-003
1000.9;  192.06; 5.1429e-003
1001.81;  192.24; 5.1505e-003
1002.7;  192.42; 5.1610e-003
1003.6;  192.6; 5.1657e-003
1004.5;  192.78; 5.1772e-003
1005.4;  192.96; 5.1872e-003
1006.29;  193.14; 5.1932e-003
1007.2;  193.32; 5.1973e-003
1008.1;  193.5; 5.2074e-003
1009;  193.68; 5.2174e-003
1009.89;  193.86; 5.2204e-003
1010.8;  194.04; 5.2315e-003
1011.69;  194.22; 5.2338e-003
1012.59;  194.4; 5.2459e-003
1013.49;  194.58; 5.2542e-003
1014.4;  194.76; 5.2588e-003
1015.29;  194.94; 5.2652e-003
1016.2;  195.12; 5.2735e-003
1017.09;  195.3; 5.2794e-003
1018;  195.48; 5.2814e-003
1018.9;  195.66; 5.2920e-003
1019.81;  195.84; 5.2972e-003
1020.71;  196.02; 5.3022e-003
1021.61;  196.2; 5.3146e-003
1022.5;  196.38; 5.3184e-003
1023.41;  196.56; 5.3215e-003
1024.3;  196.74; 5.3314e-003
1025.2;  196.92; 5.3377e-003
1026.1;  197.1; 5.3419e-003
1027;  197.28; 5.3542e-003
1027.89;  197.46; 5.3615e-003
1028.8;  197.64; 5.3658e-003
1029.68;  197.82; 5.3726e-003
1030.59;  198; 5.3791e-003
1031.48;  198.18; 5.3832e-003
1032.39;  198.36; 5.3912e-003
1033.29;  198.54; 5.4000e-003
1034.18;  198.72; 5.4052e-003
1035.09;  198.9; 5.4147e-003
1035.99;  199.08; 5.4223e-003
1036.89;  199.26; 5.4314e-003
1037.79;  199.44; 5.4349e-003
1038.68;  199.62; 5.4461e-003
1039.59;  199.8; 5.4415e-003
1040.49;  199.98; 5.4581e-003
1041.37;  200.16; 5.4640e-003
1042.28;  200.34; 5.4742e-003
1043.19;  200.52; 5.4819e-003
1044.08;  200.7; 5.4904e-003
1044.98;  200.88; 5.4975e-003
1045.87;  201.06; 5.5019e-003
1046.77;  201.24; 5.5138e-003
1047.68;  201.42; 5.5227e-003
1048.57;  201.6; 5.5225e-003
1049.47;  201.78; 5.5366e-003
1050.37;  201.96; 5.5392e-003
1051.27;  202.14; 5.5490e-003
1052.17;  202.32; 5.5558e-003
1053.05;  202.5; 5.5645e-003
1053.97;  202.68; 5.5695e-003
1054.87;  202.86; 5.5751e-003
1055.76;  203.04; 5.5767e-003
1056.66;  203.22; 5.5902e-003
1057.57;  203.4; 5.5996e-003
1058.46;  203.58; 5.6056e-003
1059.36;  203.76; 5.6105e-003
1060.26;  203.94; 5.6180e-003
1061.16;  204.12; 5.6238e-003
1062.07;  204.3; 5.6333e-003
1062.95;  204.48; 5.6405e-003
1063.87;  204.66; 5.6485e-003
1064.76;  204.84; 5.6537e-003
1065.67;  205.02; 5.6520e-003
1066.56;  205.2; 5.6690e-003
1067.46;  205.38; 5.6748e-003
1068.36;  205.56; 5.6802e-003
1069.27;  205.74; 5.6928e-003
1070.16;  205.92; 5.6944e-003
1071.06;  206.1; 5.7016e-003
1071.95;  206.28; 5.7145e-003
1072.86;  206.46; 5.7197e-003
1073.76;  206.64; 5.7248e-003
1074.66;  206.82; 5.7350e-003
1075.57;  207; 5.7413e-003
1076.45;  207.18; 5.7515e-003
1077.35;  207.36; 5.7546e-003
1078.26;  207.54; 5.7599e-003
1079.16;  207.72; 5.7738e-003
1080.06;  207.9; 5.7812e-003
1080.95;  208.08; 5.7910e-003
1081.85;  208.26; 5.7926e-003
1082.76;  208.44; 5.8027e-003
1083.65;  208.62; 5.8088e-003
1084.56;  208.8; 5.8194e-003
1085.45;  208.98; 5.8178e-003
1086.35;  209.16; 5.8320e-003
1087.25;  209.34; 5.8356e-003
1088.15;  209.52; 5.8473e-003
1089.06;  209.7; 5.8579e-003
1089.95;  209.88; 5.8595e-003
1090.85;  210.06; 5.8729e-003
1091.75;  210.24; 5.8794e-003
1092.65;  210.42; 5.8869e-003
1093.55;  210.6; 5.8922e-003
1094.45;  210.78; 5.9004e-003
1095.34;  210.96; 5.9092e-003
1096.24;  211.14; 5.9159e-003
1097.15;  211.32; 5.9208e-003
1098.05;  211.5; 5.9278e-003
1098.96;  211.68; 5.9412e-003
1099.84;  211.86; 5.9427e-003
1100.75;  212.04; 5.9500e-003
1101.65;  212.22; 5.9603e-003
1102.54;  212.4; 5.9688e-003
1103.45;  212.58; 5.9748e-003
1104.34;  212.76; 5.9830e-003
1105.25;  212.94; 5.9888e-003
1106.13;  213.12; 5.9965e-003
1107.03;  213.3; 5.9960e-003
1107.94;  213.48; 6.0106e-003
1108.85;  213.66; 6.0154e-003
1109.74;  213.84; 6.0238e-003
1110.65;  214.02; 6.0323e-003
1111.54;  214.2; 6.0405e-003
1112.44;  214.38; 6.0465e-003
1113.33;  214.56; 6.0537e-003
1114.23;  214.74; 6.0627e-003
1115.13;  214.92; 6.0682e-003
1116.02;  215.1; 6.0736e-003
1116.93;  215.28; 6.0791e-003
1117.83;  215.46; 6.0805e-003
1118.72;  215.64; 6.0969e-003
1119.64;  215.82; 6.1031e-003
1120.53;  216; 6.1015e-003
1121.43;  216.18; 6.1154e-003
1122.33;  216.36; 6.1195e-003
1123.23;  216.54; 6.1305e-003
1124.13;  216.72; 6.1392e-003
1125.03;  216.9; 6.1454e-003
1125.93;  217.08; 6.1530e-003
1126.84;  217.26; 6.1573e-003
1127.73;  217.44; 6.1629e-003
1128.63;  217.62; 6.1674e-003
1129.54;  217.8; 6.1788e-003
1130.43;  217.98; 6.1839e-003
1131.33;  218.16; 6.1903e-003
1132.23;  218.34; 6.1953e-003
1133.13;  218.52; 6.2039e-003
1134.02;  218.7; 6.2080e-003
1134.92;  218.88; 6.2132e-003
1135.82;  219.06; 6.2185e-003
1136.72;  219.24; 6.2239e-003
1137.62;  219.42; 6.2341e-003
1138.54;  219.6; 6.2427e-003
1139.42;  219.78; 6.2443e-003
1140.33;  219.96; 6.2493e-003
1141.22;  220.14; 6.2601e-003
1142.11;  220.32; 6.2636e-003
1143.03;  220.5; 6.2691e-003
1143.93;  220.68; 6.2799e-003
1144.83;  220.86; 6.2830e-003
1145.73;  221.04; 6.2882e-003
1146.63;  221.22; 6.2983e-003
1147.52;  221.4; 6.3054e-003
1148.42;  221.58; 6.2998e-003
1149.32;  221.76; 6.3165e-003
1150.22;  221.94; 6.3209e-003
1151.11;  222.12; 6.3303e-003
1152.02;  222.3; 6.3310e-003
1152.91;  222.48; 6.3365e-003
1153.82;  222.66; 6.3469e-003
1154.71;  222.84; 6.3537e-003
1155.62;  223.02; 6.3597e-003
1156.53;  223.2; 6.3659e-003
1157.41;  223.38; 6.3648e-003
1158.32;  223.56; 6.3750e-003
1159.21;  223.74; 6.3799e-003
1160.11;  223.92; 6.3883e-003
1160.99;  224.1; 6.3928e-003
1161.91;  224.28; 6.3901e-003
1162.82;  224.46; 6.4034e-003
1163.71;  224.64; 6.4078e-003
1164.62;  224.82; 6.4143e-003
1165.52;  225; 6.4204e-003
1166.41;  225.18; 6.4256e-003
1167.32;  225.36; 6.4344e-003
1168.2;  225.54; 6.4391e-003
1169.11;  225.72; 6.4386e-003
1170.01;  225.9; 6.4515e-003
1170.91;  226.08; 6.4542e-003
1171.81;  226.26; 6.4618e-003
1172.71;  226.44; 6.4620e-003
1173.62;  226.62; 6.4645e-003
1174.51;  226.8; 6.4766e-003
1175.41;  226.98; 6.4834e-003
1176.32;  227.16; 6.4887e-003
1177.2;  227.34; 6.4948e-003
1178.11;  227.52; 6.4978e-003
1179.02;  227.7; 6.5047e-003
1179.91;  227.88; 6.5071e-003
1180.81;  228.06; 6.5073e-003
1181.7;  228.24; 6.5191e-003
1182.6;  228.42; 6.5182e-003
1183.51;  228.6; 6.5319e-003
1184.4;  228.78; 6.5355e-003
1185.31;  228.96; 6.5395e-003
1186.2;  229.14; 6.5470e-003
1187.11;  229.32; 6.5505e-003
1187.99;  229.5; 6.5548e-003
1188.89;  229.68; 6.5567e-003
1189.81;  229.86; 6.5635e-003
1190.69;  230.04; 6.5656e-003
1191.6;  230.22; 6.5744e-003
1192.51;  230.4; 6.5791e-003
1193.39;  230.58; 6.5878e-003
1194.3;  230.76; 6.5925e-003
1195.2;  230.94; 6.5941e-003
1196.1;  231.12; 6.5981e-003
1197;  231.3; 6.6017e-003
1197.89;  231.48; 6.6080e-003
1198.8;  231.66; 6.6122e-003
1199.69;  231.84; 6.6142e-003
1200.6;  232.02; 6.6259e-003
1201.5;  232.2; 6.6213e-003
1202.4;  232.38; 6.6314e-003
1203.3;  232.56; 6.6361e-003
1204.19;  232.74; 6.6398e-003
1205.1;  232.92; 6.6477e-003
1206.01;  233.1; 6.6451e-003
1206.89;  233.28; 6.6517e-003
1207.8;  233.46; 6.6611e-003
1208.7;  233.64; 6.6589e-003
1209.6;  233.82; 6.6686e-003
1210.5;  234; 6.6699e-003
1211.4;  234.18; 6.6710e-003
1212.3;  234.36; 6.6794e-003
1213.19;  234.54; 6.6876e-003
1214.09;  234.72; 6.6867e-003
1215.01;  234.9; 6.6951e-003
1215.9;  235.08; 6.6965e-003
1216.8;  235.26; 6.7007e-003
1217.69;  235.44; 6.7076e-003
1218.59;  235.62; 6.7094e-003
1219.48;  235.8; 6.7093e-003
1220.39;  235.98; 6.7140e-003
1221.3;  236.16; 6.7140e-003
1222.19;  236.34; 6.7264e-003
1223.11;  236.52; 6.7329e-003
1223.98;  236.7; 6.7270e-003
1224.91;  236.88; 6.7394e-003
1225.81;  237.06; 6.7438e-003
1226.69;  237.24; 6.7475e-003
1227.6;  237.42; 6.7492e-003
1228.5;  237.6; 6.7510e-003
1229.4;  237.78; 6.7515e-003
1230.29;  237.96; 6.7579e-003
1231.18;  238.14; 6.7609e-003
1232.09;  238.32; 6.7664e-003
1232.98;  238.5; 6.7675e-003
1233.88;  238.68; 6.7682e-003
1234.8;  238.86; 6.7737e-003
1235.69;  239.04; 6.7714e-003
1236.6;  239.22; 6.7858e-003
1237.49;  239.4; 6.7878e-003
1238.39;  239.58; 6.7847e-003
1239.3;  239.76; 6.7898e-003
1240.19;  239.94; 6.7939e-003
1241.1;  240.12; 6.7958e-003
1241.99;  240.3; 6.8012e-003
1242.89;  240.48; 6.8030e-003
1243.8;  240.66; 6.8051e-003
1244.69;  240.84; 6.8083e-003
1245.59;  241.02; 6.8115e-003
1246.49;  241.2; 6.8086e-003
1247.39;  241.38; 6.8154e-003
1248.29;  241.56; 6.8168e-003
1249.18;  241.74; 6.8214e-003
1250.08;  241.92; 6.8237e-003
1250.99;  242.1; 6.8201e-003
1251.89;  242.28; 6.8267e-003
1252.78;  242.46; 6.8236e-003
1253.68;  242.64; 6.8296e-003
1254.61;  242.82; 6.8308e-003
1255.48;  243; 6.8352e-003
1256.39;  243.18; 6.8363e-003
1257.29;  243.36; 6.8354e-003
1258.19;  243.54; 6.8353e-003
1259.08;  243.72; 6.8404e-003
1259.99;  243.9; 6.8402e-003
1260.89;  244.08; 6.8436e-003
1261.78;  244.26; 6.8461e-003
1262.69;  244.44; 6.8437e-003
1263.59;  244.62; 6.8507e-003
1264.5;  244.8; 6.8493e-003
1265.39;  244.98; 6.8481e-003
1266.28;  245.16; 6.8522e-003
1267.2;  245.34; 6.8454e-003
1268.1;  245.52; 6.8521e-003
1268.98;  245.7; 6.8592e-003
1269.9;  245.88; 6.8554e-003
1270.79;  246.06; 6.8557e-003
1271.7;  246.24; 6.8567e-003
1272.59;  246.42; 6.8595e-003
1273.49;  246.6; 6.8557e-003
1274.41;  246.78; 6.8615e-003
1275.3;  246.96; 6.8567e-003
1276.2;  247.14; 6.8527e-003
1277.09;  247.32; 6.8595e-003
1278;  247.5; 6.8501e-003
1278.89;  247.68; 6.8567e-003
1279.8;  247.86; 6.8552e-003
1280.71;  248.04; 6.8561e-003
1281.59;  248.22; 6.8402e-003
1282.5;  248.4; 6.8337e-003
1283.39;  248.58; 6.8233e-003
1284.3;  248.76; 6.8297e-003
1285.19;  248.94; 6.8289e-003
1286.09;  249.12; 6.8297e-003
1286.99;  249.3; 6.8234e-003
1287.88;  249.48; 6.8242e-003
1288.79;  249.66; 6.8293e-003
1289.69;  249.84; 6.8280e-003
1290.59;  250.02; 6.8242e-003
1291.52;  250.2; 6.8267e-003
1292.4;  250.38; 6.8233e-003
1293.3;  250.56; 6.8233e-003
1294.2;  250.74; 6.8251e-003
1295.1;  250.92; 6.8270e-003
1296.01;  251.1; 6.8229e-003
1296.9;  251.28; 6.8253e-003
1297.79;  251.46; 6.8211e-003
1298.69;  251.64; 6.8206e-003
1299.59;  251.82; 6.8169e-003
1300.5;  252; 6.8193e-003
1301.39;  252.18; 6.8185e-003
1302.3;  252.36; 6.8179e-003
1303.19;  252.54; 6.8210e-003
1304.1;  252.72; 6.8202e-003
1305.01;  252.9; 6.8213e-003
1305.91;  253.08; 6.8109e-003
1306.81;  253.26; 6.8142e-003
1307.68;  253.44; 6.8116e-003
1308.6;  253.62; 6.8138e-003
1309.48;  253.8; 6.8050e-003
1310.39;  253.98; 6.8063e-003
1311.29;  254.16; 6.8115e-003
1312.18;  254.34; 6.8086e-003
1313.09;  254.52; 6.8080e-003
1314;  254.7; 6.8017e-003
1314.9;  254.88; 6.7962e-003
1315.79;  255.06; 6.7977e-003
1316.68;  255.24; 6.7994e-003
1317.6;  255.42; 6.7929e-003
1318.5;  255.6; 6.7972e-003
1319.4;  255.78; 6.7903e-003
1320.31;  255.96; 6.7927e-003
1321.21;  256.14; 6.7917e-003
1322.1;  256.32; 6.7921e-003
1322.99;  256.5; 6.7860e-003
1323.91;  256.68; 6.7856e-003
1324.8;  256.86; 6.7782e-003
1325.71;  257.04; 6.7721e-003
1326.59;  257.22; 6.7736e-003
1327.5;  257.4; 6.7648e-003
1328.41;  257.58; 6.7711e-003
1329.3;  257.76; 6.7681e-003
1330.19;  257.94; 6.7576e-003
1331.08;  258.12; 6.7564e-003
1331.98;  258.3; 6.7522e-003
1332.87;  258.48; 6.7508e-003
1333.8;  258.66; 6.7439e-003
1334.7;  258.84; 6.7443e-003
1335.59;  259.02; 6.7389e-003
1336.49;  259.2; 6.7358e-003
1337.39;  259.38; 6.7325e-003
1338.29;  259.56; 6.7175e-003
1339.2;  259.74; 6.7253e-003
1340.1;  259.92; 6.7212e-003
1341;  260.1; 6.7140e-003
1341.88;  260.28; 6.7123e-003
1342.79;  260.46; 6.7066e-003
1343.68;  260.64; 6.7028e-003
1344.59;  260.82; 6.6937e-003
1345.5;  261; 6.6905e-003
1346.38;  261.18; 6.6841e-003
1347.29;  261.36; 6.6826e-003
1348.19;  261.54; 6.6668e-003
1349.1;  261.72; 6.6620e-003
1350.01;  261.9; 6.6653e-003
1350.45;  261.99; 6.6550e-003