File: 000393_K06_20_1450_Air-static.txt
#FILE:                 ;000393_K06_20_1450_Air-static.sle
#FORMAT:               ;NETZSCH5
#IDENTITY:             ;000393
#DECIMAL:              ;POINT
#SEPARATOR:            ;SEMICOLON
#MTYPE:                ;DIL
#MSUBTYPE:             ;
#INSTRUMENT:           ;NETZSCH DIL 402 C
#PROJECT:              ;
#DATE/TIME:            ;22.06.2021 12:24:13
#CORR. FILE:           ;
#LABORATORY:           ;НМ
#OPERATOR:             ;Орлов Н.
#REMARK:               ;
#SAMPLE:               ;K06_20
#SAMPLE LENGTH /mm:    ;2.170
#MATERIAL:             ;стандартный образец
#MEASMODE:             ;Standard Expansion
#PURGE GAS 1:          ;
#FLOW RATE 1 /(ml/min):;0
#CORR. CODE:           ;000
#RANGE:                ;40.0/20.0(K/мин)/1450.0
#SEGMENT:              ;S1/1

##Temp./°C;Time/min;dL/Lo
  40.47500;0.0000e+000; 0.0000e+000
  40.48700;5.0000e-002; 0.0000e+000
  40.49000;    0.10000;-1.7281e-006
  40.49600;    0.15000;-4.6083e-006
  40.51100;    0.20000;-6.9124e-006
  40.54300;    0.25000;-9.2166e-006
  40.58900;    0.30000;-1.1521e-005
  40.68800;    0.35000;-1.4977e-005
  40.82300;    0.40000;-1.8433e-005
  41.01400;    0.45000;-2.1889e-005
  41.24400;    0.50000;-2.6498e-005
  41.50300;    0.55000;-3.2258e-005
  41.82000;    0.60000;-3.9171e-005
  42.12600;    0.65000;-4.3779e-005
  42.44300;    0.70000;-5.2995e-005
  42.77000;    0.75000;-6.1636e-005
  43.08600;    0.80000;-7.0277e-005
  43.39600;    0.85000;-7.8341e-005
  43.73400;    0.90000;-8.9286e-005
  44.03500;    0.95000;-9.8502e-005
  44.38200;    1.00000;-1.1002e-004
  44.68500;    1.05000;-1.2154e-004
  45.01400;    1.10000;-1.3364e-004
  45.35300;    1.15000;-1.4574e-004
  45.69400;    1.20000;-1.5726e-004
  46.05200;    1.25000;-1.6993e-004
  46.42600;    1.30000;-1.8376e-004
  46.81700;    1.35000;-1.9585e-004
  47.23600;    1.40000;-2.1141e-004
  47.67400;    1.45000;-2.2638e-004
  48.14200;    1.50000;-2.3963e-004
  48.64200;    1.55000;-2.5691e-004
  49.14800;    1.60000;-2.7304e-004
  49.66200;    1.65000;-2.8917e-004
  50.21400;    1.70000;-3.0703e-004
  50.75900;    1.75000;-3.2661e-004
  51.31500;    1.80000;-3.4447e-004
  51.87000;    1.85000;-3.6233e-004
  52.45300;    1.90000;-3.8364e-004
  53.02900;    1.95000;-4.0323e-004
  53.61200;    2.00000;-4.2396e-004
  54.21300;    2.05000;-4.4758e-004
  54.81400;    2.10000;-4.6832e-004
  55.42600;    2.15000;-4.9078e-004
  56.07400;    2.20000;-5.1383e-004
  56.71800;    2.25000;-5.3917e-004
  57.37500;    2.30000;-5.6164e-004
  58.05300;    2.35000;-5.8698e-004
  58.72700;    2.40000;-6.1233e-004
  59.44700;    2.45000;-6.3825e-004
  60.17300;    2.50000;-6.6475e-004
  60.90400;    2.55000;-6.9240e-004
  61.65100;    2.60000;-7.1889e-004
  62.40700;    2.65000;-7.4770e-004
  63.18300;    2.70000;-7.7707e-004
  63.95400;    2.75000;-8.0588e-004
  64.74800;    2.80000;-8.3583e-004
  65.53400;    2.85000;-8.6751e-004
  66.34500;    2.90000;-8.9747e-004
  67.17000;    2.95000;-9.2857e-004
  68.01700;    3.00000;-9.6083e-004
  68.85700;    3.05000;-9.9482e-004
  69.71900;    3.10000;-1.0282e-003
  70.58800;    3.15000;-1.0616e-003
  71.46700;    3.20000;-1.1043e-003
  72.36100;    3.25000;-1.1302e-003
  73.26300;    3.30000;-1.1653e-003
  74.17600;    3.35000;-1.2010e-003
  75.10700;    3.40000;-1.2379e-003
  76.05300;    3.45000;-1.2753e-003
  76.98700;    3.50000;-1.3122e-003
  77.95700;    3.55000;-1.3502e-003
  78.92000;    3.60000;-1.3882e-003
  79.89400;    3.65000;-1.4268e-003
  80.90300;    3.70000;-1.4666e-003
  81.89800;    3.75000;-1.5063e-003
  82.91200;    3.80000;-1.5467e-003
  83.92300;    3.85000;-1.5876e-003
  84.94900;    3.90000;-1.6279e-003
  85.99100;    3.95000;-1.6688e-003
  87.02800;    4.00000;-1.7103e-003
  88.08300;    4.05000;-1.7540e-003
  89.14000;    4.10000;-1.7955e-003
  90.22200;    4.15000;-1.8393e-003
  91.30300;    4.20000;-1.8813e-003
  92.38700;    4.25000;-1.9251e-003
  93.48100;    4.30000;-1.9700e-003
  94.57600;    4.35000;-2.0132e-003
  95.68600;    4.40000;-2.0599e-003
  96.79900;    4.45000;-2.1043e-003
  97.91300;    4.50000;-2.1486e-003
  99.04000;    4.55000;-2.1947e-003
 100.171;    4.60000;-2.2402e-003
 101.313;    4.65000;-2.2857e-003
 102.465;    4.70000;-2.3335e-003
 103.61;    4.75000;-2.3773e-003
 104.778;    4.80000;-2.4257e-003
 105.941;    4.85000;-2.4712e-003
 107.106;    4.90000;-2.5167e-003
 108.28;    4.95000;-2.5645e-003
 109.456;    5.00000;-2.6089e-003
 110.65;    5.05000;-2.6550e-003
 111.847;    5.10000;-2.7010e-003
 113.061;    5.15000;-2.7471e-003
 114.263;    5.20000;-2.7932e-003
 115.466;    5.25000;-2.8387e-003
 116.688;    5.30000;-2.8842e-003
 117.901;    5.35000;-2.9303e-003
 119.123;    5.40000;-2.9752e-003
 120.365;    5.45000;-3.0213e-003
 121.611;    5.50000;-3.0662e-003
 122.839;    5.55000;-3.1094e-003
 124.085;    5.60000;-3.1527e-003
 125.33;    5.65000;-3.1976e-003
 126.599;    5.70000;-3.2402e-003
 127.863;    5.75000;-3.2840e-003
 129.114;    5.80000;-3.3266e-003
 130.381;    5.85000;-3.3704e-003
 131.635;    5.90000;-3.4124e-003
 132.872;    5.95000;-3.4545e-003
 134.088;    6.00000;-3.4977e-003
 135.253;    6.05000;-3.5374e-003
 136.399;    6.10000;-3.5801e-003
 137.511;    6.15000;-3.6215e-003
 138.605;    6.20000;-3.6636e-003
 139.722;    6.25000;-3.7028e-003
 140.827;    6.30000;-3.7460e-003
 141.927;    6.35000;-3.7869e-003
 143.048;    6.40000;-3.8243e-003
 144.194;    6.45000;-3.8646e-003
 145.351;    6.50000;-3.9015e-003
 146.517;    6.55000;-3.9401e-003
 147.676;    6.60000;-3.9764e-003
 148.847;    6.65000;-4.0150e-003
 150.002;    6.70000;-4.0507e-003
 151.155;    6.75000;-4.0853e-003
 152.322;    6.80000;-4.1227e-003
 153.476;    6.85000;-4.1550e-003
 154.63;    6.90000;-4.1895e-003
 155.755;    6.95000;-4.2224e-003
 156.899;    7.00000;-4.2563e-003
 158.046;    7.05000;-4.2880e-003
 159.186;    7.10000;-4.3197e-003
 160.322;    7.15000;-4.3520e-003
 161.452;    7.20000;-4.3813e-003
 162.613;    7.25000;-4.4124e-003
 163.75;    7.30000;-4.4418e-003
 164.894;    7.35000;-4.4724e-003
 166.029;    7.40000;-4.5006e-003
 167.167;    7.45000;-4.5300e-003
 168.308;    7.50000;-4.5559e-003
 169.449;    7.55000;-4.5853e-003
 170.577;    7.60000;-4.6112e-003
 171.707;    7.65000;-4.6377e-003
 172.849;    7.70000;-4.6647e-003
 173.986;    7.75000;-4.6895e-003
 175.123;    7.80000;-4.7131e-003
 176.258;    7.85000;-4.7368e-003
 177.401;    7.90000;-4.7609e-003
 178.533;    7.95000;-4.7823e-003
 179.678;    8.00000;-4.8030e-003
 180.808;    8.05000;-4.8243e-003
 181.93;    8.10000;-4.8450e-003
 183.06;    8.15000;-4.8646e-003
 184.197;    8.20000;-4.8836e-003
 185.333;    8.25000;-4.9003e-003
 186.475;    8.30000;-4.9188e-003
 187.607;    8.35000;-4.9361e-003
 188.743;    8.40000;-4.9533e-003
 189.867;    8.45000;-4.9689e-003
 190.984;    8.50000;-4.9827e-003
 192.138;    8.55000;-4.9977e-003
 193.26;    8.60000;-5.0104e-003
 194.381;    8.65000;-5.0236e-003
 195.509;    8.70000;-5.0351e-003
 196.663;    8.75000;-5.0467e-003
 197.782;    8.80000;-5.0559e-003
 198.901;    8.85000;-5.0680e-003
 200.033;    8.90000;-5.0760e-003
 201.169;    8.95000;-5.0841e-003
 202.297;    9.00000;-5.0927e-003
 203.415;    9.05000;-5.1002e-003
 204.534;    9.10000;-5.1071e-003
 205.669;    9.15000;-5.1112e-003
 206.79;    9.20000;-5.1169e-003
 207.927;    9.25000;-5.1215e-003
 209.037;    9.30000;-5.1256e-003
 210.18;    9.35000;-5.1290e-003
 211.286;    9.40000;-5.1313e-003
 212.418;    9.45000;-5.1325e-003
 213.54;    9.50000;-5.1331e-003
 214.666;    9.55000;-5.1348e-003
 215.792;    9.60000;-5.1342e-003
 216.925;    9.65000;-5.1331e-003
 218.043;    9.70000;-5.1313e-003
 219.177;    9.75000;-5.1302e-003
 220.296;    9.80000;-5.1267e-003
 221.428;    9.85000;-5.1244e-003
 222.538;    9.90000;-5.1204e-003
 223.663;    9.95000;-5.1158e-003
 224.772;   10.00000;-5.1089e-003
 225.894;   10.05000;-5.1020e-003
 227.021;   10.10000;-5.0974e-003
 228.143;   10.15000;-5.0904e-003
 229.271;   10.20000;-5.0830e-003
 230.379;   10.25000;-5.0737e-003
 231.494;   10.30000;-5.0657e-003
 232.621;   10.35000;-5.0565e-003
 233.742;   10.40000;-5.0467e-003
 234.868;   10.45000;-5.0369e-003
 235.985;   10.50000;-5.0277e-003
 237.1;   10.55000;-5.0150e-003
 238.224;   10.60000;-5.0046e-003
 239.339;   10.65000;-4.9914e-003
 240.455;   10.70000;-4.9816e-003
 241.583;   10.75000;-4.9695e-003
 242.707;   10.80000;-4.9574e-003
 243.833;   10.85000;-4.9436e-003
 244.948;   10.90000;-4.9291e-003
 246.068;   10.95000;-4.9159e-003
 247.195;   11.00000;-4.9009e-003
 248.315;   11.05000;-4.8865e-003
 249.443;   11.10000;-4.8710e-003
 250.568;   11.15000;-4.8560e-003
 251.698;   11.20000;-4.8404e-003
 252.813;   11.25000;-4.8255e-003
 253.956;   11.30000;-4.8082e-003
 255.086;   11.35000;-4.7921e-003
 256.215;   11.40000;-4.7736e-003
 257.375;   11.45000;-4.7552e-003
 258.53;   11.50000;-4.7373e-003
 259.683;   11.55000;-4.7166e-003
 260.843;   11.60000;-4.6987e-003
 262.006;   11.65000;-4.6780e-003
 263.183;   11.70000;-4.6561e-003
 264.369;   11.75000;-4.6371e-003
 265.579;   11.80000;-4.6129e-003
 266.792;   11.85000;-4.5927e-003
 267.982;   11.90000;-4.5691e-003
 269.188;   11.95000;-4.5467e-003
 270.392;   12.00000;-4.5242e-003
 271.577;   12.05000;-4.5006e-003
 272.765;   12.10000;-4.4781e-003
 273.948;   12.15000;-4.4545e-003
 275.129;   12.20000;-4.4315e-003
 276.294;   12.25000;-4.4061e-003
 277.457;   12.30000;-4.3813e-003
 278.616;   12.35000;-4.3577e-003
 279.794;   12.40000;-4.3324e-003
 280.932;   12.45000;-4.3065e-003
 282.072;   12.50000;-4.2834e-003
 283.219;   12.55000;-4.2586e-003
 284.344;   12.60000;-4.2327e-003
 285.492;   12.65000;-4.2068e-003
 286.611;   12.70000;-4.1791e-003
 287.731;   12.75000;-4.1515e-003
 288.85;   12.80000;-4.1233e-003
 289.97;   12.85000;-4.0945e-003
 291.101;   12.90000;-4.0674e-003
 292.214;   12.95000;-4.0392e-003
 293.341;   13.00000;-4.0104e-003
 294.446;   13.05000;-3.9810e-003
 295.585;   13.10000;-3.9516e-003
 296.71;   13.15000;-3.9199e-003
 297.819;   13.20000;-3.8894e-003
 298.948;   13.25000;-3.8612e-003
 300.06;   13.30000;-3.8295e-003
 301.199;   13.35000;-3.7961e-003
 302.311;   13.40000;-3.7638e-003
 303.428;   13.45000;-3.7321e-003
 304.57;   13.50000;-3.6993e-003
 305.671;   13.55000;-3.6671e-003
 306.806;   13.60000;-3.6331e-003
 307.924;   13.65000;-3.6014e-003
 309.051;   13.70000;-3.5686e-003
 310.182;   13.75000;-3.5340e-003
 311.304;   13.80000;-3.5006e-003
 312.436;   13.85000;-3.4660e-003
 313.562;   13.90000;-3.4320e-003
 314.693;   13.95000;-3.3986e-003
 315.822;   14.00000;-3.3664e-003
 316.942;   14.05000;-3.3301e-003
 318.066;   14.10000;-3.2967e-003
 319.186;   14.15000;-3.2609e-003
 320.314;   14.20000;-3.2270e-003
 321.446;   14.25000;-3.1947e-003
 322.581;   14.30000;-3.1573e-003
 323.705;   14.35000;-3.1244e-003
 324.841;   14.40000;-3.0893e-003
 325.986;   14.45000;-3.0541e-003
 327.108;   14.50000;-3.0196e-003
 328.225;   14.55000;-2.9850e-003
 329.359;   14.60000;-2.9487e-003
 330.488;   14.65000;-2.9153e-003
 331.608;   14.70000;-2.8785e-003
 332.736;   14.75000;-2.8450e-003
 333.857;   14.80000;-2.8099e-003
 334.981;   14.85000;-2.7736e-003
 336.126;   14.90000;-2.7385e-003
 337.239;   14.95000;-2.7022e-003
 338.359;   15.00000;-2.6665e-003
 339.504;   15.05000;-2.6302e-003
 340.621;   15.10000;-2.5927e-003
 341.748;   15.15000;-2.5570e-003
 342.874;   15.20000;-2.5230e-003
 344.003;   15.25000;-2.4856e-003
 345.123;   15.30000;-2.4482e-003
 346.273;   15.35000;-2.4130e-003
 347.392;   15.40000;-2.3762e-003
 348.524;   15.45000;-2.3399e-003
 349.626;   15.50000;-2.3013e-003
 350.71;   15.55000;-2.2661e-003
 351.826;   15.60000;-2.2281e-003
 352.939;   15.65000;-2.1889e-003
 354.044;   15.70000;-2.1532e-003
 355.175;   15.75000;-2.1164e-003
 356.355;   15.80000;-2.0778e-003
 357.687;   15.85000;-2.0426e-003
 359.171;   15.90000;-2.0046e-003
 360.536;   15.95000;-1.9695e-003
 361.677;   16.00000;-1.9320e-003
 362.557;   16.05000;-1.8952e-003
 363.213;   16.10000;-1.8594e-003
 363.96;   16.15000;-1.8209e-003
 364.861;   16.20000;-1.7817e-003
 365.867;   16.25000;-1.7414e-003
 366.875;   16.30000;-1.7010e-003
 367.835;   16.35000;-1.6619e-003
 368.718;   16.40000;-1.6215e-003
 369.567;   16.45000;-1.5829e-003
 370.386;   16.50000;-1.5444e-003
 371.204;   16.55000;-1.5052e-003
 372.046;   16.60000;-1.4677e-003
 372.901;   16.65000;-1.4320e-003
 373.776;   16.70000;-1.3946e-003
 374.66;   16.75000;-1.3577e-003
 375.545;   16.80000;-1.3232e-003
 376.436;   16.85000;-1.2863e-003
 377.333;   16.90000;-1.2523e-003
 378.245;   16.95000;-1.2160e-003
 379.165;   17.00000;-1.1843e-003
 380.109;   17.05000;-1.1503e-003
 381.053;   17.10000;-1.1164e-003
 382.02;   17.15000;-1.0835e-003
 382.998;   17.20000;-1.0507e-003
 383.97;   17.25000;-1.0207e-003
 384.965;   17.30000;-9.8848e-004
 385.958;   17.35000;-9.5968e-004
 386.962;   17.40000;-9.2857e-004
 387.985;   17.45000;-8.9919e-004
 389.013;   17.50000;-8.6866e-004
 390.046;   17.55000;-8.3986e-004
 391.072;   17.60000;-8.1106e-004
 392.126;   17.65000;-7.7995e-004
 393.161;   17.70000;-7.5230e-004
 394.215;   17.75000;-7.2465e-004
 395.262;   17.80000;-6.9412e-004
 396.323;   17.85000;-6.6590e-004
 397.379;   17.90000;-6.3883e-004
 398.451;   17.95000;-6.0887e-004
 399.517;   18.00000;-5.8007e-004
 400.582;   18.05000;-5.4896e-004
 401.643;   18.10000;-5.2247e-004
 402.713;   18.15000;-4.9309e-004
 403.804;   18.20000;-4.6313e-004
 404.873;   18.25000;-4.3376e-004
 405.932;   18.30000;-4.0611e-004
 406.994;   18.35000;-3.7673e-004
 408.08;   18.40000;-3.4850e-004
 409.14;   18.45000;-3.1912e-004
 410.207;   18.50000;-2.8917e-004
 411.286;   18.55000;-2.6152e-004
 412.356;   18.60000;-2.3214e-004
 413.423;   18.65000;-2.0161e-004
 414.487;   18.70000;-1.7224e-004
 415.556;   18.75000;-1.4228e-004
 416.628;   18.80000;-1.1348e-004
 417.688;   18.85000;-8.2949e-005
 418.759;   18.90000;-5.2995e-005
 419.825;   18.95000;-2.3618e-005
 420.884;   19.00000; 8.0645e-006
 421.953;   19.05000; 3.5138e-005
 423.038;   19.10000; 6.7972e-005
 424.086;   19.15000; 9.6198e-005
 425.145;   19.20000; 1.2558e-004
 426.211;   19.25000; 1.5668e-004
 427.279;   19.30000; 1.8664e-004
 428.337;   19.35000; 2.1601e-004
 429.404;   19.40000; 2.4597e-004
 430.462;   19.45000; 2.7823e-004
 431.53;   19.50000; 3.0818e-004
 432.587;   19.55000; 3.3871e-004
 433.645;   19.60000; 3.7097e-004
 434.712;   19.65000; 4.0035e-004
 435.785;   19.70000; 4.3260e-004
 436.827;   19.75000; 4.6371e-004
 437.89;   19.80000; 4.9539e-004
 438.942;   19.85000; 5.2707e-004
 440.008;   19.90000; 5.5876e-004
 441.066;   19.95000; 5.8986e-004
 442.132;   20.00000; 6.2212e-004
 443.178;   20.05000; 6.5150e-004
 444.236;   20.10000; 6.8376e-004
 445.29;   20.15000; 7.1659e-004
 446.345;   20.20000; 7.4827e-004
 447.405;   20.25000; 7.7995e-004
 448.447;   20.30000; 8.0991e-004
 449.515;   20.35000; 8.4389e-004
 450.562;   20.40000; 8.7730e-004
 451.605;   20.45000; 9.0841e-004
 452.665;   20.50000; 9.4182e-004
 453.708;   20.55000; 9.7465e-004
 454.766;   20.60000; 1.0040e-003
 455.816;   20.65000; 1.0386e-003
 456.863;   20.70000; 1.0726e-003
 457.918;   20.75000; 1.1060e-003
 458.949;   20.80000; 1.1382e-003
 459.998;   20.85000; 1.1722e-003
 461.062;   20.90000; 1.2062e-003
 462.088;   20.95000; 1.2385e-003
 463.14;   21.00000; 1.2730e-003
 464.179;   21.05000; 1.3070e-003
 465.23;   21.10000; 1.3404e-003
 466.276;   21.15000; 1.3721e-003
 467.314;   21.20000; 1.4084e-003
 468.356;   21.25000; 1.4435e-003
 469.39;   21.30000; 1.4770e-003
 470.435;   21.35000; 1.5115e-003
 471.475;   21.40000; 1.5432e-003
 472.516;   21.45000; 1.5795e-003
 473.56;   21.50000; 1.6141e-003
 474.597;   21.55000; 1.6486e-003
 475.628;   21.60000; 1.6843e-003
 476.671;   21.65000; 1.7189e-003
 477.71;   21.70000; 1.7529e-003
 478.755;   21.75000; 1.7869e-003
 479.775;   21.80000; 1.8232e-003
 480.813;   21.85000; 1.8594e-003
 481.837;   21.90000; 1.8934e-003
 482.869;   21.95000; 1.9291e-003
 483.905;   22.00000; 1.9649e-003
 484.932;   22.05000; 1.9988e-003
 485.97;   22.10000; 2.0346e-003
 487.002;   22.15000; 2.0685e-003
 488.032;   22.20000; 2.1060e-003
 489.06;   22.25000; 2.1423e-003
 490.074;   22.30000; 2.1791e-003
 491.104;   22.35000; 2.2120e-003
 492.14;   22.40000; 2.2506e-003
 493.167;   22.45000; 2.2857e-003
 494.195;   22.50000; 2.3209e-003
 495.22;   22.55000; 2.3589e-003
 496.241;   22.60000; 2.3917e-003
 497.261;   22.65000; 2.4303e-003
 498.289;   22.70000; 2.4672e-003
 499.305;   22.75000; 2.5029e-003
 500.336;   22.80000; 2.5392e-003
 501.341;   22.85000; 2.5737e-003
 502.369;   22.90000; 2.6118e-003
 503.379;   22.95000; 2.6475e-003
 504.407;   23.00000; 2.6820e-003
 505.427;   23.05000; 2.7183e-003
 506.437;   23.10000; 2.7540e-003
 507.453;   23.15000; 2.7897e-003
 508.462;   23.20000; 2.8272e-003
 509.48;   23.25000; 2.8623e-003
 510.498;   23.30000; 2.9003e-003
 511.521;   23.35000; 2.9343e-003
 512.524;   23.40000; 2.9706e-003
 513.549;   23.45000; 3.0058e-003
 514.556;   23.50000; 3.0426e-003
 515.583;   23.55000; 3.0778e-003
 516.593;   23.60000; 3.1135e-003
 517.594;   23.65000; 3.1503e-003
 518.625;   23.70000; 3.1884e-003
 519.628;   23.75000; 3.2224e-003
 520.647;   23.80000; 3.2604e-003
 521.655;   23.85000; 3.2961e-003
 522.664;   23.90000; 3.3324e-003
 523.675;   23.95000; 3.3681e-003
 524.681;   24.00000; 3.4027e-003
 525.696;   24.05000; 3.4430e-003
 526.71;   24.10000; 3.4775e-003
 527.717;   24.15000; 3.5144e-003
 528.729;   24.20000; 3.5495e-003
 529.733;   24.25000; 3.5881e-003
 530.746;   24.30000; 3.6221e-003
 531.761;   24.35000; 3.6596e-003
 532.764;   24.40000; 3.6959e-003
 533.777;   24.45000; 3.7316e-003
 534.776;   24.50000; 3.7644e-003
 535.799;   24.55000; 3.8007e-003
 536.8;   24.60000; 3.8399e-003
 537.821;   24.65000; 3.8762e-003
 538.808;   24.70000; 3.9136e-003
 539.818;   24.75000; 3.9470e-003
 540.831;   24.80000; 3.9839e-003
 541.829;   24.85000; 4.0184e-003
 542.841;   24.90000; 4.0565e-003
 543.839;   24.95000; 4.0922e-003
 544.857;   25.00000; 4.1273e-003
 545.844;   25.05000; 4.1636e-003
 546.854;   25.10000; 4.1982e-003
 547.86;   25.15000; 4.2362e-003
 548.875;   25.20000; 4.2707e-003
 549.879;   25.25000; 4.3082e-003
 550.879;   25.30000; 4.3410e-003
 551.883;   25.35000; 4.3785e-003
 552.882;   25.40000; 4.4136e-003
 553.886;   25.45000; 4.4516e-003
 554.886;   25.50000; 4.4873e-003
 555.898;   25.55000; 4.5202e-003
 556.899;   25.60000; 4.5570e-003
 557.893;   25.65000; 4.5904e-003
 558.897;   25.70000; 4.6244e-003
 559.893;   25.75000; 4.6636e-003
 560.886;   25.80000; 4.6976e-003
 561.894;   25.85000; 4.7327e-003
 562.902;   25.90000; 4.7713e-003
 563.891;   25.95000; 4.8053e-003
 564.906;   26.00000; 4.8387e-003
 565.894;   26.05000; 4.8773e-003
 566.904;   26.10000; 4.9096e-003
 567.892;   26.15000; 4.9430e-003
 568.896;   26.20000; 4.9833e-003
 569.903;   26.25000; 5.0173e-003
 570.897;   26.30000; 5.0495e-003
 571.905;   26.35000; 5.0858e-003
 572.89;   26.40000; 5.1192e-003
 573.891;   26.45000; 5.1555e-003
 574.883;   26.50000; 5.1878e-003
 575.886;   26.55000; 5.2235e-003
 576.891;   26.60000; 5.2529e-003
 577.884;   26.65000; 5.2909e-003
 578.88;   26.70000; 5.3283e-003
 579.881;   26.75000; 5.3612e-003
 580.87;   26.80000; 5.3940e-003
 581.887;   26.85000; 5.4303e-003
 582.863;   26.90000; 5.4637e-003
 583.869;   26.95000; 5.4989e-003
 584.868;   27.00000; 5.5311e-003
 585.872;   27.05000; 5.5674e-003
 586.859;   27.10000; 5.6020e-003
 587.866;   27.15000; 5.6319e-003
 588.863;   27.20000; 5.6705e-003
 589.853;   27.25000; 5.7039e-003
 590.846;   27.30000; 5.7350e-003
 591.839;   27.35000; 5.7673e-003
 592.856;   27.40000; 5.8042e-003
 593.827;   27.45000; 5.8381e-003
 594.838;   27.50000; 5.8692e-003
 595.825;   27.55000; 5.9003e-003
 596.822;   27.60000; 5.9389e-003
 597.818;   27.65000; 5.9712e-003
 598.806;   27.70000; 6.0029e-003
 599.808;   27.75000; 6.0374e-003
 600.801;   27.80000; 6.0697e-003
 601.797;   27.85000; 6.1020e-003
 602.787;   27.90000; 6.1331e-003
 603.789;   27.95000; 6.1642e-003
 604.776;   28.00000; 6.1976e-003
 605.774;   28.05000; 6.2310e-003
 606.77;   28.10000; 6.2615e-003
 607.776;   28.15000; 6.2938e-003
 608.762;   28.20000; 6.3283e-003
 609.757;   28.25000; 6.3589e-003
 610.75;   28.30000; 6.3871e-003
 611.747;   28.35000; 6.4228e-003
 612.722;   28.40000; 6.4545e-003
 613.72;   28.45000; 6.4868e-003
 614.718;   28.50000; 6.5150e-003
 615.706;   28.55000; 6.5461e-003
 616.706;   28.60000; 6.5783e-003
 617.697;   28.65000; 6.6095e-003
 618.7;   28.70000; 6.6365e-003
 619.684;   28.75000; 6.6699e-003
 620.683;   28.80000; 6.7005e-003
 621.668;   28.85000; 6.7310e-003
 622.675;   28.90000; 6.7598e-003
 623.659;   28.95000; 6.7915e-003
 624.647;   29.00000; 6.8237e-003
 625.641;   29.05000; 6.8554e-003
 626.645;   29.10000; 6.8819e-003
 627.631;   29.15000; 6.9101e-003
 628.623;   29.20000; 6.9424e-003
 629.62;   29.25000; 6.9700e-003
 630.606;   29.30000; 7.0000e-003
 631.602;   29.35000; 7.0305e-003
 632.601;   29.40000; 7.0593e-003
 633.583;   29.45000; 7.0876e-003
 634.599;   29.50000; 7.1204e-003
 635.576;   29.55000; 7.1480e-003
 636.558;   29.60000; 7.1763e-003
 637.547;   29.65000; 7.2056e-003
 638.548;   29.70000; 7.2345e-003
 639.535;   29.75000; 7.2650e-003
 640.53;   29.80000; 7.2903e-003
 641.53;   29.85000; 7.3180e-003
 642.523;   29.90000; 7.3485e-003
 643.51;   29.95000; 7.3785e-003
 644.499;   30.00000; 7.4009e-003
 645.498;   30.05000; 7.4320e-003
 646.502;   30.10000; 7.4574e-003
 647.493;   30.15000; 7.4862e-003
 648.48;   30.20000; 7.5121e-003
 649.46;   30.25000; 7.5397e-003
 650.458;   30.30000; 7.5686e-003
 651.453;   30.35000; 7.5956e-003
 652.447;   30.40000; 7.6227e-003
 653.432;   30.45000; 7.6498e-003
 654.434;   30.50000; 7.6792e-003
 655.408;   30.55000; 7.7016e-003
 656.427;   30.60000; 7.7270e-003
 657.412;   30.65000; 7.7586e-003
 658.393;   30.70000; 7.7800e-003
 659.385;   30.75000; 7.8070e-003
 660.388;   30.80000; 7.8347e-003
 661.374;   30.85000; 7.8577e-003
 662.371;   30.90000; 7.8894e-003
 663.364;   30.95000; 7.9130e-003
 664.354;   31.00000; 7.9401e-003
 665.34;   31.05000; 7.9562e-003
 666.338;   31.10000; 7.9896e-003
 667.331;   31.15000; 8.0098e-003
 668.329;   31.20000; 8.0374e-003
 669.31;   31.25000; 8.0634e-003
 670.311;   31.30000; 8.0847e-003
 671.292;   31.35000; 8.1083e-003
 672.289;   31.40000; 8.1383e-003
 673.282;   31.45000; 8.1613e-003
 674.286;   31.50000; 8.1878e-003
 675.275;   31.55000; 8.2108e-003
 676.25;   31.60000; 8.2304e-003
 677.244;   31.65000; 8.2575e-003
 678.255;   31.70000; 8.2794e-003
 679.227;   31.75000; 8.3013e-003
 680.23;   31.80000; 8.3260e-003
 681.216;   31.85000; 8.3508e-003
 682.209;   31.90000; 8.3687e-003
 683.207;   31.95000; 8.3992e-003
 684.197;   32.00000; 8.4182e-003
 685.186;   32.05000; 8.4453e-003
 686.18;   32.10000; 8.4683e-003
 687.176;   32.15000; 8.4908e-003
 688.183;   32.20000; 8.5133e-003
 689.164;   32.25000; 8.5444e-003
 690.159;   32.30000; 8.5743e-003
 691.145;   32.35000; 8.6054e-003
 692.157;   32.40000; 8.6348e-003
 693.146;   32.45000; 8.6596e-003
 694.139;   32.50000; 8.6901e-003
 695.135;   32.55000; 8.7201e-003
 696.128;   32.60000; 8.7460e-003
 697.123;   32.65000; 8.7742e-003
 698.111;   32.70000; 8.7990e-003
 699.106;   32.75000; 8.8295e-003
 700.114;   32.80000; 8.8537e-003
 701.105;   32.85000; 8.8790e-003
 702.089;   32.90000; 8.9096e-003
 703.093;   32.95000; 8.9326e-003
 704.086;   33.00000; 8.9516e-003
 705.074;   33.05000; 8.9845e-003
 706.066;   33.10000; 9.0075e-003
 707.054;   33.15000; 9.0351e-003
 708.056;   33.20000; 9.0565e-003
 709.036;   33.25000; 9.0841e-003
 710.042;   33.30000; 9.1066e-003
 711.037;   33.35000; 9.1296e-003
 712.025;   33.40000; 9.1538e-003
 713.017;   33.45000; 9.1768e-003
 714.02;   33.50000; 9.2010e-003
 715.006;   33.55000; 9.2189e-003
 715.995;   33.60000; 9.2477e-003
 716.995;   33.65000; 9.2713e-003
 717.994;   33.70000; 9.2932e-003
 718.972;   33.75000; 9.3157e-003
 719.982;   33.80000; 9.3353e-003
 720.97;   33.85000; 9.3560e-003
 721.958;   33.90000; 9.3796e-003
 722.942;   33.95000; 9.4003e-003
 723.936;   34.00000; 9.4217e-003
 724.918;   34.05000; 9.4436e-003
 725.927;   34.10000; 9.4608e-003
 726.906;   34.15000; 9.4856e-003
 727.902;   34.20000; 9.5069e-003
 728.891;   34.25000; 9.5213e-003
 729.884;   34.30000; 9.5455e-003
 730.874;   34.35000; 9.5674e-003
 731.88;   34.40000; 9.5853e-003
 732.862;   34.45000; 9.6048e-003
 733.853;   34.50000; 9.6279e-003
 734.843;   34.55000; 9.6434e-003
 735.836;   34.60000; 9.6653e-003
 736.835;   34.65000; 9.6855e-003
 737.836;   34.70000; 9.6976e-003
 738.807;   34.75000; 9.7206e-003
 739.797;   34.80000; 9.7385e-003
 740.793;   34.85000; 9.7558e-003
 741.782;   34.90000; 9.7754e-003
 742.771;   34.95000; 9.7903e-003
 743.775;   35.00000; 9.8076e-003
 744.755;   35.05000; 9.8260e-003
 745.749;   35.10000; 9.8445e-003
 746.747;   35.15000; 9.8600e-003
 747.726;   35.20000; 9.8756e-003
 748.729;   35.25000; 9.8883e-003
 749.708;   35.30000; 9.9050e-003
 750.7;   35.35000; 9.9251e-003
 751.697;   35.40000; 9.9407e-003
 752.679;   35.45000; 9.9557e-003
 753.682;   35.50000; 9.9683e-003
 754.658;   35.55000; 9.9856e-003
 755.656;   35.60000; 9.9989e-003
 756.643;   35.65000; 1.0016e-002
 757.648;   35.70000; 1.0031e-002
 758.645;   35.75000; 1.0040e-002
 759.629;   35.80000; 1.0060e-002
 760.623;   35.85000; 1.0069e-002
 761.615;   35.90000; 1.0085e-002
 762.6;   35.95000; 1.0096e-002
 763.588;   36.00000; 1.0109e-002
 764.596;   36.05000; 1.0122e-002
 765.574;   36.10000; 1.0138e-002
 766.569;   36.15000; 1.0144e-002
 767.562;   36.20000; 1.0157e-002
 768.552;   36.25000; 1.0172e-002
 769.558;   36.30000; 1.0180e-002
 770.527;   36.35000; 1.0190e-002
 771.524;   36.40000; 1.0205e-002
 772.51;   36.45000; 1.0211e-002
 773.51;   36.50000; 1.0223e-002
 774.501;   36.55000; 1.0234e-002
 775.507;   36.60000; 1.0244e-002
 776.499;   36.65000; 1.0249e-002
 777.483;   36.70000; 1.0255e-002
 778.487;   36.75000; 1.0266e-002
 779.468;   36.80000; 1.0274e-002
 780.466;   36.85000; 1.0277e-002
 781.462;   36.90000; 1.0286e-002
 782.448;   36.95000; 1.0295e-002
 783.449;   37.00000; 1.0299e-002
 784.433;   37.05000; 1.0306e-002
 785.426;   37.10000; 1.0314e-002
 786.416;   37.15000; 1.0312e-002
 787.406;   37.20000; 1.0320e-002
 788.409;   37.25000; 1.0329e-002
 789.397;   37.30000; 1.0331e-002
 790.386;   37.35000; 1.0336e-002
 791.394;   37.40000; 1.0336e-002
 792.379;   37.45000; 1.0336e-002
 793.371;   37.50000; 1.0342e-002
 794.363;   37.55000; 1.0344e-002
 795.355;   37.60000; 1.0346e-002
 796.351;   37.65000; 1.0340e-002
 797.339;   37.70000; 1.0347e-002
 798.35;   37.75000; 1.0347e-002
 799.343;   37.80000; 1.0343e-002
 800.335;   37.85000; 1.0342e-002
 801.313;   37.90000; 1.0344e-002
 802.309;   37.95000; 1.0338e-002
 803.316;   38.00000; 1.0331e-002
 804.294;   38.05000; 1.0334e-002
 805.283;   38.10000; 1.0331e-002
 806.287;   38.15000; 1.0319e-002
 807.284;   38.20000; 1.0321e-002
 808.28;   38.25000; 1.0314e-002
 809.269;   38.30000; 1.0303e-002
 810.265;   38.35000; 1.0300e-002
 811.244;   38.40000; 1.0290e-002
 812.253;   38.45000; 1.0281e-002
 813.243;   38.50000; 1.0274e-002
 814.232;   38.55000; 1.0263e-002
 815.223;   38.60000; 1.0255e-002
 816.215;   38.65000; 1.0246e-002
 817.226;   38.70000; 1.0233e-002
 818.213;   38.75000; 1.0213e-002
 819.21;   38.80000; 1.0211e-002
 820.203;   38.85000; 1.0190e-002
 821.192;   38.90000; 1.0181e-002
 822.184;   38.95000; 1.0161e-002
 823.175;   39.00000; 1.0153e-002
 824.167;   39.05000; 1.0134e-002
 825.158;   39.10000; 1.0109e-002
 826.156;   39.15000; 1.0103e-002
 827.144;   39.20000; 1.0086e-002
 828.142;   39.25000; 1.0063e-002
 829.123;   39.30000; 1.0046e-002
 830.133;   39.35000; 1.0024e-002
 831.119;   39.40000; 1.0006e-002
 832.125;   39.45000; 9.9821e-003
 833.128;   39.50000; 9.9614e-003
 834.103;   39.55000; 9.9389e-003
 835.095;   39.60000; 9.9176e-003
 836.091;   39.65000; 9.8923e-003
 837.079;   39.70000; 9.8583e-003
 838.08;   39.75000; 9.8381e-003
 839.071;   39.80000; 9.8128e-003
 840.068;   39.85000; 9.7834e-003
 841.054;   39.90000; 9.7512e-003
 842.072;   39.95000; 9.7298e-003
 843.035;   40.00000; 9.7005e-003
 844.04;   40.05000; 9.6728e-003
 845.029;   40.10000; 9.6388e-003
 846.021;   40.15000; 9.6071e-003
 847.022;   40.20000; 9.5737e-003
 848.02;   40.25000; 9.5438e-003
 849.008;   40.30000; 9.5098e-003
 849.996;   40.35000; 9.4752e-003
 850.993;   40.40000; 9.4401e-003
 851.985;   40.45000; 9.3963e-003
 852.977;   40.50000; 9.3635e-003
 853.977;   40.55000; 9.3255e-003
 854.943;   40.60000; 9.2840e-003
 855.954;   40.65000; 9.2471e-003
 856.944;   40.70000; 9.2108e-003
 857.949;   40.75000; 9.1688e-003
 858.938;   40.80000; 9.1273e-003
 859.936;   40.85000; 9.0818e-003
 860.922;   40.90000; 9.0444e-003
 861.92;   40.95000; 8.9994e-003
 862.915;   41.00000; 8.9522e-003
 863.908;   41.05000; 8.9090e-003
 864.897;   41.10000; 8.8595e-003
 865.899;   41.15000; 8.8180e-003
 866.871;   41.20000; 8.7644e-003
 867.872;   41.25000; 8.7177e-003
 868.866;   41.30000; 8.6671e-003
 869.862;   41.35000; 8.6169e-003
 870.853;   41.40000; 8.5639e-003
 871.852;   41.45000; 8.5156e-003
 872.84;   41.50000; 8.4626e-003
 873.838;   41.55000; 8.4067e-003
 874.833;   41.60000; 8.3537e-003
 875.824;   41.65000; 8.3001e-003
 876.824;   41.70000; 8.2391e-003
 877.823;   41.75000; 8.1907e-003
 878.811;   41.80000; 8.1285e-003
 879.805;   41.85000; 8.0743e-003
 880.796;   41.90000; 8.0184e-003
 881.787;   41.95000; 7.9493e-003
 882.776;   42.00000; 7.9015e-003
 883.772;   42.05000; 7.8404e-003
 884.762;   42.10000; 7.7742e-003
 885.766;   42.15000; 7.7166e-003
 886.758;   42.20000; 7.6544e-003
 887.747;   42.25000; 7.5939e-003
 888.752;   42.30000; 7.5311e-003
 889.739;   42.35000; 7.4666e-003
 890.732;   42.40000; 7.4032e-003
 891.723;   42.45000; 7.3399e-003
 892.706;   42.50000; 7.2707e-003
 893.712;   42.55000; 7.2068e-003
 894.704;   42.60000; 7.1400e-003
 895.685;   42.65000; 7.0743e-003
 896.696;   42.70000; 7.0075e-003
 897.691;   42.75000; 6.9384e-003
 898.681;   42.80000; 6.8721e-003
 899.667;   42.85000; 6.8042e-003
 900.665;   42.90000; 6.7316e-003
 901.655;   42.95000; 6.6601e-003
 902.644;   43.00000; 6.5910e-003
 903.652;   43.05000; 6.5225e-003
 904.649;   43.10000; 6.4505e-003
 905.639;   43.15000; 6.3802e-003
 906.624;   43.20000; 6.3059e-003
 907.621;   43.25000; 6.2304e-003
 908.619;   43.30000; 6.1596e-003
 909.603;   43.35000; 6.0858e-003
 910.601;   43.40000; 6.0127e-003
 911.597;   43.45000; 5.9355e-003
 912.602;   43.50000; 5.8577e-003
 913.588;   43.55000; 5.7834e-003
 914.578;   43.60000; 5.7051e-003
 915.568;   43.65000; 5.6296e-003
 916.571;   43.70000; 5.5484e-003
 917.543;   43.75000; 5.4747e-003
 918.546;   43.80000; 5.3963e-003
 919.542;   43.85000; 5.3139e-003
 920.547;   43.90000; 5.2356e-003
 921.541;   43.95000; 5.1538e-003
 922.532;   44.00000; 5.0755e-003
 923.529;   44.05000; 4.9914e-003
 924.516;   44.10000; 4.9096e-003
 925.511;   44.15000; 4.8278e-003
 926.508;   44.20000; 4.7373e-003
 927.495;   44.25000; 4.6584e-003
 928.481;   44.30000; 4.5737e-003
 929.479;   44.35000; 4.4896e-003
 930.466;   44.40000; 4.4021e-003
 931.46;   44.45000; 4.3116e-003
 932.457;   44.50000; 4.2275e-003
 933.454;   44.55000; 4.1388e-003
 934.454;   44.60000; 4.0518e-003
 935.435;   44.65000; 3.9631e-003
 936.442;   44.70000; 3.8715e-003
 937.421;   44.75000; 3.7805e-003
 938.419;   44.80000; 3.6907e-003
 939.427;   44.85000; 3.5968e-003
 940.399;   44.90000; 3.5046e-003
 941.399;   44.95000; 3.4136e-003
 942.383;   45.00000; 3.3174e-003
 943.376;   45.05000; 3.2218e-003
 944.374;   45.10000; 3.1250e-003
 945.369;   45.15000; 3.0265e-003
 946.355;   45.20000; 2.9291e-003
 947.347;   45.25000; 2.8237e-003
 948.35;   45.30000; 2.7212e-003
 949.336;   45.35000; 2.6221e-003
 950.329;   45.40000; 2.5144e-003
 951.332;   45.45000; 2.4044e-003
 952.308;   45.50000; 2.2926e-003
 953.308;   45.55000; 2.1797e-003
 954.308;   45.60000; 2.0657e-003
 955.301;   45.65000; 1.9533e-003
 956.286;   45.70000; 1.8376e-003
 957.285;   45.75000; 1.7224e-003
 958.279;   45.80000; 1.6066e-003
 959.277;   45.85000; 1.4891e-003
 960.255;   45.90000; 1.3698e-003
 961.261;   45.95000; 1.2535e-003
 962.247;   46.00000; 1.1359e-003
 963.244;   46.05000; 1.0156e-003
 964.231;   46.10000; 8.9459e-004
 965.237;   46.15000; 7.7362e-004
 966.237;   46.20000; 6.5323e-004
 967.218;   46.25000; 5.3168e-004
 968.226;   46.30000; 4.0956e-004
 969.216;   46.35000; 2.8571e-004
 970.216;   46.40000; 1.5899e-004
 971.208;   46.45000; 3.3986e-005
 972.185;   46.50000;-9.3318e-005
 973.182;   46.55000;-2.2235e-004
 974.171;   46.60000;-3.4850e-004
 975.162;   46.65000;-4.7869e-004
 976.163;   46.70000;-6.0945e-004
 977.157;   46.75000;-7.3963e-004
 978.156;   46.80000;-8.7327e-004
 979.152;   46.85000;-1.0069e-003
 980.134;   46.90000;-1.1423e-003
 981.124;   46.95000;-1.2794e-003
 982.135;   47.00000;-1.4188e-003
 983.117;   47.05000;-1.5565e-003
 984.11;   47.10000;-1.6941e-003
 985.115;   47.15000;-1.8347e-003
 986.107;   47.20000;-1.9752e-003
 987.106;   47.25000;-2.1198e-003
 988.1;   47.30000;-2.2621e-003
 989.088;   47.35000;-2.4055e-003
 990.078;   47.40000;-2.5484e-003
 991.08;   47.45000;-2.6924e-003
 992.062;   47.50000;-2.8376e-003
 993.069;   47.55000;-2.9862e-003
 994.054;   47.60000;-3.1313e-003
 995.055;   47.65000;-3.2788e-003
 996.046;   47.70000;-3.4245e-003
 997.037;   47.75000;-3.5743e-003
 998.038;   47.80000;-3.7183e-003
 999.038;   47.85000;-3.8554e-003
1000.03;   47.90000;-3.9902e-003
1001.02;   47.95000;-4.1290e-003
1002.02;   48.00000;-4.2696e-003
1003;   48.05000;-4.4107e-003
1004;   48.10000;-4.5536e-003
1004.99;   48.15000;-4.7005e-003
1005.99;   48.20000;-4.8514e-003
1006.99;   48.25000;-5.0040e-003
1007.98;   48.30000;-5.1578e-003
1008.98;   48.35000;-5.3134e-003
1009.98;   48.40000;-5.4672e-003
1010.97;   48.45000;-5.6181e-003
1011.95;   48.50000;-5.7558e-003
1012.95;   48.55000;-5.8940e-003
1013.95;   48.60000;-6.0334e-003
1014.94;   48.65000;-6.1763e-003
1015.93;   48.70000;-6.3214e-003
1016.93;   48.75000;-6.4683e-003
1017.92;   48.80000;-6.6181e-003
1018.92;   48.85000;-6.7702e-003
1019.92;   48.90000;-6.9245e-003
1020.92;   48.95000;-7.0818e-003
1021.92;   49.00000;-7.2396e-003
1022.91;   49.05000;-7.4003e-003
1023.91;   49.10000;-7.5657e-003
1024.89;   49.15000;-7.7316e-003
1025.89;   49.20000;-7.8969e-003
1026.89;   49.25000;-8.0622e-003
1027.88;   49.30000;-8.2327e-003
1028.87;   49.35000;-8.3980e-003
1029.86;   49.40000;-8.5749e-003
1030.86;   49.45000;-8.7489e-003
1031.85;   49.50000;-8.9245e-003
1032.84;   49.55000;-9.1071e-003
1033.83;   49.60000;-9.2892e-003
1034.83;   49.65000;-9.4689e-003
1035.82;   49.70000;-9.6504e-003
1036.83;   49.75000;-9.8318e-003
1037.82;   49.80000;-1.0021e-002
1038.81;   49.85000;-1.0215e-002
1039.81;   49.90000;-1.0399e-002
1040.81;   49.95000;-1.0587e-002
1041.79;   50.00000;-1.0781e-002
1042.78;   50.05000;-1.0976e-002
1043.78;   50.10000;-1.1170e-002
1044.79;   50.15000;-1.1363e-002
1045.78;   50.20000;-1.1563e-002
1046.78;   50.25000;-1.1760e-002
1047.77;   50.30000;-1.1963e-002
1048.77;   50.35000;-1.2168e-002
1049.75;   50.40000;-1.2376e-002
1050.75;   50.45000;-1.2574e-002
1051.74;   50.50000;-1.2787e-002
1052.73;   50.55000;-1.2993e-002
1053.73;   50.60000;-1.3202e-002
1054.72;   50.65000;-1.3410e-002
1055.73;   50.70000;-1.3622e-002
1056.71;   50.75000;-1.3838e-002
1057.73;   50.80000;-1.4047e-002
1058.71;   50.85000;-1.4259e-002
1059.71;   50.90000;-1.4471e-002
1060.7;   50.95000;-1.4686e-002
1061.69;   51.00000;-1.4904e-002
1062.68;   51.05000;-1.5115e-002
1063.68;   51.10000;-1.5339e-002
1064.67;   51.15000;-1.5555e-002
1065.68;   51.20000;-1.5781e-002
1066.67;   51.25000;-1.6002e-002
1067.67;   51.30000;-1.6223e-002
1068.65;   51.35000;-1.6455e-002
1069.65;   51.40000;-1.6675e-002
1070.63;   51.45000;-1.6906e-002
1071.64;   51.50000;-1.7132e-002
1072.63;   51.55000;-1.7355e-002
1073.63;   51.60000;-1.7584e-002
1074.62;   51.65000;-1.7821e-002
1075.63;   51.70000;-1.8041e-002
1076.62;   51.75000;-1.8279e-002
1077.62;   51.80000;-1.8513e-002
1078.61;   51.85000;-1.8734e-002
1079.61;   51.90000;-1.8974e-002
1080.6;   51.95000;-1.9204e-002
1081.59;   52.00000;-1.9441e-002
1082.6;   52.05000;-1.9666e-002
1083.58;   52.10000;-1.9902e-002
1084.58;   52.15000;-2.0149e-002
1085.58;   52.20000;-2.0383e-002
1086.57;   52.25000;-2.0623e-002
1087.57;   52.30000;-2.0862e-002
1088.55;   52.35000;-2.1098e-002
1089.54;   52.40000;-2.1339e-002
1090.54;   52.45000;-2.1582e-002
1091.54;   52.50000;-2.1817e-002
1092.53;   52.55000;-2.2070e-002
1093.53;   52.60000;-2.2328e-002
1094.52;   52.65000;-2.2566e-002
1095.52;   52.70000;-2.2824e-002
1096.51;   52.75000;-2.3070e-002
1097.5;   52.80000;-2.3321e-002
1098.5;   52.85000;-2.3570e-002
1099.49;   52.90000;-2.3814e-002
1100.5;   52.95000;-2.4065e-002
1101.5;   53.00000;-2.4329e-002
1102.49;   53.05000;-2.4580e-002
1103.47;   53.10000;-2.4847e-002
1104.48;   53.15000;-2.5104e-002
1105.46;   53.20000;-2.5366e-002
1106.46;   53.25000;-2.5618e-002
1107.45;   53.30000;-2.5890e-002
1108.44;   53.35000;-2.6161e-002
1109.45;   53.40000;-2.6423e-002
1110.44;   53.45000;-2.6691e-002
1111.44;   53.50000;-2.6949e-002
1112.44;   53.55000;-2.7201e-002
1113.43;   53.60000;-2.7482e-002
1114.43;   53.65000;-2.7758e-002
1115.41;   53.70000;-2.8020e-002
1116.41;   53.75000;-2.8287e-002
1117.41;   53.80000;-2.8565e-002
1118.41;   53.85000;-2.8831e-002
1119.41;   53.90000;-2.9112e-002
1120.41;   53.95000;-2.9392e-002
1121.4;   54.00000;-2.9668e-002
1122.39;   54.05000;-2.9940e-002
1123.39;   54.10000;-3.0212e-002
1124.4;   54.15000;-3.0483e-002
1125.39;   54.20000;-3.0789e-002
1126.38;   54.25000;-3.1073e-002
1127.38;   54.30000;-3.1351e-002
1128.37;   54.35000;-3.1626e-002
1129.37;   54.40000;-3.1919e-002
1130.36;   54.45000;-3.2213e-002
1131.35;   54.50000;-3.2494e-002
1132.36;   54.55000;-3.2789e-002
1133.33;   54.60000;-3.3067e-002
1134.33;   54.65000;-3.3366e-002
1135.33;   54.70000;-3.3658e-002
1136.33;   54.75000;-3.3961e-002
1137.33;   54.80000;-3.4247e-002
1138.32;   54.85000;-3.4535e-002
1139.31;   54.90000;-3.4849e-002
1140.32;   54.95000;-3.5142e-002
1141.31;   55.00000;-3.5437e-002
1142.31;   55.05000;-3.5738e-002
1143.3;   55.10000;-3.6017e-002
1144.3;   55.15000;-3.6343e-002
1145.29;   55.20000;-3.6640e-002
1146.3;   55.25000;-3.6952e-002
1147.3;   55.30000;-3.7226e-002
1148.29;   55.35000;-3.7550e-002
1149.3;   55.40000;-3.7858e-002
1150.3;   55.45000;-3.8147e-002
1151.29;   55.50000;-3.8438e-002
1152.27;   55.55000;-3.8771e-002
1153.27;   55.60000;-3.9071e-002
1154.27;   55.65000;-3.9378e-002
1155.26;   55.70000;-3.9690e-002
1156.27;   55.75000;-4.0016e-002
1157.26;   55.80000;-4.0321e-002
1158.27;   55.85000;-4.0633e-002
1159.25;   55.90000;-4.0950e-002
1160.23;   55.95000;-4.1282e-002
1161.24;   56.00000;-4.1558e-002
1162.23;   56.05000;-4.1910e-002
1163.22;   56.10000;-4.2213e-002
1164.23;   56.15000;-4.2536e-002
1165.23;   56.20000;-4.2879e-002
1166.21;   56.25000;-4.3190e-002
1167.2;   56.30000;-4.3507e-002
1168.2;   56.35000;-4.3810e-002
1169.2;   56.40000;-4.4158e-002
1170.21;   56.45000;-4.4443e-002
1171.19;   56.50000;-4.4791e-002
1172.19;   56.55000;-4.5139e-002
1173.19;   56.60000;-4.5467e-002
1174.19;   56.65000;-4.5790e-002
1175.2;   56.70000;-4.6114e-002
1176.17;   56.75000;-4.6419e-002
1177.17;   56.80000;-4.6734e-002
1178.18;   56.85000;-4.7084e-002
1179.17;   56.90000;-4.7408e-002
1180.17;   56.95000;-4.7742e-002
1181.17;   57.00000;-4.8067e-002
1182.16;   57.05000;-4.8380e-002
1183.16;   57.10000;-4.8711e-002
1184.14;   57.15000;-4.9032e-002
1185.14;   57.20000;-4.9370e-002
1186.14;   57.25000;-4.9687e-002
1187.14;   57.30000;-4.9992e-002
1188.13;   57.35000;-5.0344e-002
1189.14;   57.40000;-5.0668e-002
1190.14;   57.45000;-5.1002e-002
1191.11;   57.50000;-5.1339e-002
1192.12;   57.55000;-5.1671e-002
1193.12;   57.60000;-5.1989e-002
1194.11;   57.65000;-5.2301e-002
1195.11;   57.70000;-5.2634e-002
1196.1;   57.75000;-5.2975e-002
1197.12;   57.80000;-5.3301e-002
1198.09;   57.85000;-5.3627e-002
1199.12;   57.90000;-5.3949e-002
1200.1;   57.95000;-5.4255e-002
1201.09;   58.00000;-5.4599e-002
1202.07;   58.05000;-5.4915e-002
1203.08;   58.10000;-5.5241e-002
1204.07;   58.15000;-5.5532e-002
1205.08;   58.20000;-5.5855e-002
1206.08;   58.25000;-5.6173e-002
1207.08;   58.30000;-5.6460e-002
1208.05;   58.35000;-5.6806e-002
1209.06;   58.40000;-5.7110e-002
1210.05;   58.45000;-5.7418e-002
1211.06;   58.50000;-5.7727e-002
1212.06;   58.55000;-5.8033e-002
1213.05;   58.60000;-5.8308e-002
1214.05;   58.65000;-5.8637e-002
1215.05;   58.70000;-5.8938e-002
1216.06;   58.75000;-5.9203e-002
1217.05;   58.80000;-5.9518e-002
1218.03;   58.85000;-5.9801e-002
1219.03;   58.90000;-6.0089e-002
1220.03;   58.95000;-6.0365e-002
1221.03;   59.00000;-6.0628e-002
1222.04;   59.05000;-6.0903e-002
1223.02;   59.10000;-6.1191e-002
1224.03;   59.15000;-6.1458e-002
1225.01;   59.20000;-6.1741e-002
1226;   59.25000;-6.2006e-002
1227.01;   59.30000;-6.2275e-002
1228.01;   59.35000;-6.2537e-002
1229.01;   59.40000;-6.2776e-002
1230;   59.45000;-6.3050e-002
1230.99;   59.50000;-6.3282e-002
1231.98;   59.55000;-6.3543e-002
1232.99;   59.60000;-6.3793e-002
1233.98;   59.65000;-6.4056e-002
1235;   59.70000;-6.4291e-002
1235.98;   59.75000;-6.4531e-002
1236.98;   59.80000;-6.4795e-002
1237.98;   59.85000;-6.4973e-002
1238.98;   59.90000;-6.5252e-002
1239.98;   59.95000;-6.5514e-002
1240.96;   60.00000;-6.5718e-002
1241.99;   60.05000;-6.5932e-002
1242.97;   60.10000;-6.6181e-002
1243.97;   60.15000;-6.6386e-002
1244.97;   60.20000;-6.6623e-002
1245.96;   60.25000;-6.6845e-002
1246.97;   60.30000;-6.7052e-002
1247.97;   60.35000;-6.7296e-002
1248.96;   60.40000;-6.7501e-002
1249.96;   60.45000;-6.7697e-002
1250.94;   60.50000;-6.7941e-002
1251.95;   60.55000;-6.8122e-002
1252.95;   60.60000;-6.8364e-002
1253.95;   60.65000;-6.8586e-002
1254.92;   60.70000;-6.8784e-002
1255.93;   60.75000;-6.9006e-002
1256.93;   60.80000;-6.9191e-002
1257.94;   60.85000;-6.9416e-002
1258.92;   60.90000;-6.9632e-002
1259.94;   60.95000;-6.9830e-002
1260.93;   61.00000;-7.0034e-002
1261.93;   61.05000;-7.0199e-002
1262.92;   61.10000;-7.0419e-002
1263.93;   61.15000;-7.0623e-002
1264.91;   61.20000;-7.0794e-002
1265.92;   61.25000;-7.0993e-002
1266.93;   61.30000;-7.1184e-002
1267.93;   61.35000;-7.1381e-002
1268.93;   61.40000;-7.1586e-002
1269.92;   61.45000;-7.1719e-002
1270.92;   61.50000;-7.1949e-002
1271.9;   61.55000;-7.2134e-002
1272.9;   61.60000;-7.2330e-002
1273.9;   61.65000;-7.2490e-002
1274.91;   61.70000;-7.2680e-002
1275.9;   61.75000;-7.2823e-002
1276.9;   61.80000;-7.2972e-002
1277.91;   61.85000;-7.3197e-002
1278.89;   61.90000;-7.3359e-002
1279.9;   61.95000;-7.3506e-002
1280.9;   62.00000;-7.3718e-002
1281.91;   62.05000;-7.3867e-002
1282.91;   62.10000;-7.4066e-002
1283.9;   62.15000;-7.4216e-002
1284.9;   62.20000;-7.4384e-002
1285.9;   62.25000;-7.4549e-002
1286.9;   62.30000;-7.4704e-002
1287.89;   62.35000;-7.4860e-002
1288.88;   62.40000;-7.4964e-002
1289.88;   62.45000;-7.5168e-002
1290.88;   62.50000;-7.5277e-002
1291.88;   62.55000;-7.5408e-002
1292.87;   62.60000;-7.5591e-002
1293.87;   62.65000;-7.5731e-002
1294.87;   62.70000;-7.5808e-002
1295.85;   62.75000;-7.5956e-002
1296.86;   62.80000;-7.6099e-002
1297.88;   62.85000;-7.6278e-002
1298.88;   62.90000;-7.6417e-002
1299.88;   62.95000;-7.6474e-002
1300.87;   63.00000;-7.6653e-002
1301.88;   63.05000;-7.6785e-002
1302.86;   63.10000;-7.6890e-002
1303.86;   63.15000;-7.7006e-002
1304.86;   63.20000;-7.7129e-002
1305.88;   63.25000;-7.7233e-002
1306.87;   63.30000;-7.7335e-002
1307.86;   63.35000;-7.7449e-002
1308.87;   63.40000;-7.7579e-002
1309.85;   63.45000;-7.7669e-002
1310.85;   63.50000;-7.7778e-002
1311.86;   63.55000;-7.7859e-002
1312.85;   63.60000;-7.7968e-002
1313.86;   63.65000;-7.8071e-002
1314.87;   63.70000;-7.8118e-002
1315.87;   63.75000;-7.8243e-002
1316.85;   63.80000;-7.8283e-002
1317.85;   63.85000;-7.8383e-002
1318.84;   63.90000;-7.8458e-002
1319.85;   63.95000;-7.8522e-002
1320.85;   64.00000;-7.8567e-002
1321.84;   64.05000;-7.8584e-002
1322.84;   64.10000;-7.8653e-002
1323.84;   64.15000;-7.8709e-002
1324.83;   64.20000;-7.8776e-002
1325.83;   64.25000;-7.8876e-002
1326.84;   64.30000;-7.8963e-002
1327.84;   64.35000;-7.9002e-002
1328.84;   64.40000;-7.9115e-002
1329.84;   64.45000;-7.9137e-002
1330.84;   64.50000;-7.9203e-002
1331.83;   64.55000;-7.9306e-002
1332.82;   64.60000;-7.9366e-002
1333.83;   64.65000;-7.9411e-002
1334.84;   64.70000;-7.9519e-002
1335.83;   64.75000;-7.9607e-002
1336.84;   64.80000;-7.9634e-002
1337.81;   64.85000;-7.9717e-002
1338.81;   64.90000;-7.9764e-002
1339.8;   64.95000;-7.9850e-002
1340.8;   65.00000;-7.9930e-002
1341.8;   65.05000;-7.9984e-002
1342.82;   65.10000;-8.0031e-002
1343.81;   65.15000;-8.0120e-002
1344.81;   65.20000;-8.0209e-002
1345.8;   65.25000;-8.0269e-002
1346.78;   65.30000;-8.0285e-002
1347.79;   65.35000;-8.0354e-002
1348.79;   65.40000;-8.0450e-002
1349.79;   65.45000;-8.0514e-002
1350.8;   65.50000;-8.0622e-002
1351.79;   65.55000;-8.0709e-002
1352.78;   65.60000;-8.0816e-002
1353.77;   65.65000;-8.0916e-002
1354.77;   65.70000;-8.0950e-002
1355.77;   65.75000;-8.1040e-002
1356.78;   65.80000;-8.1075e-002
1357.78;   65.85000;-8.1181e-002
1358.75;   65.90000;-8.1274e-002
1359.76;   65.95000;-8.1291e-002
1360.76;   66.00000;-8.1383e-002
1361.76;   66.05000;-8.1434e-002
1362.77;   66.10000;-8.1516e-002
1363.77;   66.15000;-8.1597e-002
1364.78;   66.20000;-8.1766e-002
1365.76;   66.25000;-8.1865e-002
1366.78;   66.30000;-8.1923e-002
1367.76;   66.35000;-8.2013e-002
1368.75;   66.40000;-8.2179e-002
1369.75;   66.45000;-8.2296e-002
1370.76;   66.50000;-8.2443e-002
1371.76;   66.55000;-8.2556e-002
1372.76;   66.60000;-8.2641e-002
1373.76;   66.65000;-8.2768e-002
1374.75;   66.70000;-8.2831e-002
1375.76;   66.75000;-8.3025e-002
1376.77;   66.80000;-8.3178e-002
1377.76;   66.85000;-8.3290e-002
1378.76;   66.90000;-8.3387e-002
1379.75;   66.95000;-8.3448e-002
1380.76;   67.00000;-8.3561e-002
1381.75;   67.05000;-8.3660e-002
1382.75;   67.10000;-8.3688e-002
1383.75;   67.15000;-8.3760e-002
1384.75;   67.20000;-8.3805e-002
1385.76;   67.25000;-8.3857e-002
1386.77;   67.30000;-8.3868e-002
1387.78;   67.35000;-8.3881e-002
1388.76;   67.40000;-8.3841e-002
1389.76;   67.45000;-8.3782e-002
1390.77;   67.50000;-8.3802e-002
1391.78;   67.55000;-8.3777e-002
1392.76;   67.60000;-8.3764e-002
1393.77;   67.65000;-8.3828e-002
1394.76;   67.70000;-8.3855e-002
1395.77;   67.75000;-8.4105e-002
1396.76;   67.80000;-8.4085e-002
1397.76;   67.85000;-8.3933e-002
1398.76;   67.90000;-8.4006e-002
1399.76;   67.95000;-8.4273e-002
1400.75;   68.00000;-8.4332e-002
1401.75;   68.05000;-8.4294e-002
1402.76;   68.10000;-8.4231e-002
1403.75;   68.15000;-8.4575e-002
1404.74;   68.20000;-8.4522e-002
1405.75;   68.25000;-8.4586e-002
1406.76;   68.30000;-8.4596e-002
1407.76;   68.35000;-8.4527e-002
1408.74;   68.40000;-8.4381e-002
1409.74;   68.45000;-8.4859e-002
1410.75;   68.50000;-8.5020e-002
1411.76;   68.55000;-8.5037e-002
1412.76;   68.60000;-8.4727e-002
1413.75;   68.65000;-8.5211e-002
1414.74;   68.70000;-8.5573e-002
1415.75;   68.75000;-8.5410e-002
1416.75;   68.80000;-8.5540e-002
1417.74;   68.85000;-8.5907e-002
1418.75;   68.90000;-8.5758e-002
1419.75;   68.95000;-8.5521e-002
1420.76;   69.00000;-8.5142e-002
1421.76;   69.05000;-8.5404e-002
1422.74;   69.10000;-8.5516e-002
1423.76;   69.15000;-8.5800e-002
1424.75;   69.20000;-8.5910e-002
1425.75;   69.25000;-8.5342e-002
1426.76;   69.30000;-8.5092e-002
1427.76;   69.35000;-8.5141e-002
1428.74;   69.40000;-8.4681e-002
1429.74;   69.45000;-8.4860e-002
1430.74;   69.50000;-8.4825e-002
1431.75;   69.55000;-8.4337e-002
1432.75;   69.60000;-8.3460e-002
1433.75;   69.65000;-8.3524e-002
1434.74;   69.70000;-8.3661e-002
1435.74;   69.75000;-8.3043e-002
1436.74;   69.80000;-8.2633e-002
1437.75;   69.85000;-8.3385e-002
1438.75;   69.90000;-8.1924e-002
1439.74;   69.95000;-7.9461e-002
1440.76;   70.00000;-8.0126e-002
1441.76;   70.05000;-8.0511e-002
1442.76;   70.10000;-7.8856e-002
1443.75;   70.15000;-7.9865e-002
1444.75;   70.20000;-7.9422e-002
1445.76;   70.25000;-7.7523e-002
1446.76;   70.30000;-7.6656e-002
1447.75;   70.35000;-7.6135e-002
1448.74;   70.40000;-7.6915e-002
1449.74;   70.45000;-7.7287e-002
1450.35;   70.48000;-7.6798e-002