File: 000397_K06_5_1350_Air-static.txt
#FILE:                 ;000397_K06_5_1350_Air-static.sle
#FORMAT:               ;NETZSCH5
#IDENTITY:             ;000397
#DECIMAL:              ;POINT
#SEPARATOR:            ;SEMICOLON
#MTYPE:                ;DIL
#MSUBTYPE:             ;
#INSTRUMENT:           ;NETZSCH DIL 402 C
#PROJECT:              ;
#DATE/TIME:            ;24.06.2021 13:17:17
#CORR. FILE:           ;
#LABORATORY:           ;НМ
#OPERATOR:             ;Орлов Н.
#REMARK:               ;
#SAMPLE:               ;corr_5
#SAMPLE LENGTH /mm:    ;2.400
#MATERIAL:             ;стандартный образец
#MEASMODE:             ;Standard Expansion
#PURGE GAS 1:          ;
#FLOW RATE 1 /(ml/min):;0
#CORR. CODE:           ;000
#RANGE:                ;40.0/5.0(K/мин)/1350.0
#SEGMENT:              ;S1/1

##Temp./°C;Time/min;dL/Lo
  40.34600;0.0000e+000; 0.0000e+000
  40.37200;    0.18000; 0.0000e+000
  40.42000;    0.36000;-1.5625e-006
  40.51500;    0.54000;-4.1667e-006
  40.70300;    0.72000;-6.2500e-006
  40.96300;    0.90000;-1.3542e-005
  41.27100;    1.08000;-1.7708e-005
  41.60100;    1.26000;-2.6563e-005
  41.93600;    1.44000;-3.7500e-005
  42.28100;    1.62000;-4.8958e-005
  42.62900;    1.80000;-5.9375e-005
  43.01600;    1.98000;-7.2396e-005
  43.41400;    2.16000;-8.5938e-005
  43.87900;    2.34000;-1.0365e-004
  44.37400;    2.52000;-1.2031e-004
  44.90200;    2.70000;-1.3698e-004
  45.46400;    2.88000;-1.5781e-004
  46.04800;    3.06000;-1.7969e-004
  46.64600;    3.24000;-2.0104e-004
  47.26500;    3.42000;-2.2552e-004
  47.92100;    3.60000;-2.5156e-004
  48.61400;    3.78000;-2.7396e-004
  49.32600;    3.96000;-3.0208e-004
  50.07800;    4.14000;-3.2656e-004
  50.83900;    4.32000;-3.5729e-004
  51.62500;    4.50000;-3.8490e-004
  52.44700;    4.68000;-4.1563e-004
  53.28400;    4.86000;-4.4479e-004
  54.13300;    5.04000;-4.7604e-004
  55.01600;    5.22000;-5.0781e-004
  55.92200;    5.40000;-5.3854e-004
  56.84200;    5.58000;-5.7344e-004
  57.79000;    5.76000;-6.0573e-004
  58.75100;    5.94000;-6.4115e-004
  59.73000;    6.12000;-6.7344e-004
  60.73000;    6.30000;-7.0781e-004
  61.73000;    6.48000;-7.4219e-004
  62.76800;    6.66000;-7.7500e-004
  63.80200;    6.84000;-8.0938e-004
  64.85900;    7.02000;-8.4271e-004
  65.91900;    7.20000;-8.7708e-004
  67.01300;    7.38000;-9.1198e-004
  68.10900;    7.56000;-9.4479e-004
  69.20700;    7.74000;-9.7917e-004
  70.32700;    7.92000;-1.0135e-003
  71.43500;    8.10000;-1.0458e-003
  72.57800;    8.28000;-1.0807e-003
  73.71400;    8.46000;-1.1146e-003
  74.86700;    8.64000;-1.1469e-003
  76.02300;    8.82000;-1.1807e-003
  77.17800;    9.00000;-1.2120e-003
  78.33700;    9.18000;-1.2453e-003
  79.50000;    9.36000;-1.2766e-003
  80.66900;    9.54000;-1.3063e-003
  81.84900;    9.72000;-1.3370e-003
  83.02800;    9.90000;-1.3651e-003
  84.19600;   10.08000;-1.3922e-003
  85.36600;   10.26000;-1.4193e-003
  86.53600;   10.44000;-1.4453e-003
  87.71100;   10.62000;-1.4693e-003
  88.88200;   10.80000;-1.4943e-003
  90.05600;   10.98000;-1.5182e-003
  91.23100;   11.16000;-1.5396e-003
  92.37200;   11.34000;-1.5609e-003
  93.53500;   11.52000;-1.5802e-003
  94.69100;   11.70000;-1.5979e-003
  95.85000;   11.88000;-1.6156e-003
  96.97900;   12.06000;-1.6307e-003
  98.12300;   12.24000;-1.6474e-003
  99.27300;   12.42000;-1.6604e-003
 100.384;   12.60000;-1.6729e-003
 101.512;   12.78000;-1.6854e-003
 102.633;   12.96000;-1.6948e-003
 103.75;   13.14000;-1.7042e-003
 104.846;   13.32000;-1.7125e-003
 105.956;   13.50000;-1.7182e-003
 107.047;   13.68000;-1.7229e-003
 108.137;   13.86000;-1.7271e-003
 109.218;   14.04000;-1.7297e-003
 110.307;   14.22000;-1.7333e-003
 111.394;   14.40000;-1.7344e-003
 112.442;   14.58000;-1.7354e-003
 113.501;   14.76000;-1.7328e-003
 114.555;   14.94000;-1.7328e-003
 115.613;   15.12000;-1.7292e-003
 116.646;   15.30000;-1.7255e-003
 117.684;   15.48000;-1.7214e-003
 118.733;   15.66000;-1.7203e-003
 119.747;   15.84000;-1.7198e-003
 120.758;   16.02000;-1.7214e-003
 121.786;   16.20000;-1.7167e-003
 122.782;   16.38000;-1.7089e-003
 123.798;   16.56000;-1.6984e-003
 124.792;   16.74000;-1.6917e-003
 125.778;   16.92000;-1.6781e-003
 126.773;   17.10000;-1.6682e-003
 127.759;   17.28000;-1.6583e-003
 128.732;   17.46000;-1.6453e-003
 129.69;   17.64000;-1.6333e-003
 130.667;   17.82000;-1.6193e-003
 131.622;   18.00000;-1.6057e-003
 132.59;   18.18000;-1.5917e-003
 133.528;   18.36000;-1.5776e-003
 134.468;   18.54000;-1.5630e-003
 135.414;   18.72000;-1.5495e-003
 136.345;   18.90000;-1.5318e-003
 137.278;   19.08000;-1.5151e-003
 138.196;   19.26000;-1.4990e-003
 139.124;   19.44000;-1.4833e-003
 140.04;   19.62000;-1.4667e-003
 140.958;   19.80000;-1.4484e-003
 141.872;   19.98000;-1.4354e-003
 142.775;   20.16000;-1.4193e-003
 143.686;   20.34000;-1.4026e-003
 144.597;   20.52000;-1.3854e-003
 145.494;   20.70000;-1.3641e-003
 146.385;   20.88000;-1.3469e-003
 147.272;   21.06000;-1.3302e-003
 148.172;   21.24000;-1.3089e-003
 149.059;   21.42000;-1.2891e-003
 149.949;   21.60000;-1.2703e-003
 150.835;   21.78000;-1.2495e-003
 151.715;   21.96000;-1.2292e-003
 152.61;   22.14000;-1.2099e-003
 153.486;   22.32000;-1.1880e-003
 154.363;   22.50000;-1.1698e-003
 155.239;   22.68000;-1.1500e-003
 156.112;   22.86000;-1.1307e-003
 156.998;   23.04000;-1.1104e-003
 157.868;   23.22000;-1.0885e-003
 158.752;   23.40000;-1.0693e-003
 159.612;   23.58000;-1.0495e-003
 160.474;   23.76000;-1.0328e-003
 161.356;   23.94000;-1.0130e-003
 162.228;   24.12000;-9.9271e-004
 163.106;   24.30000;-9.7500e-004
 163.978;   24.48000;-9.5781e-004
 164.853;   24.66000;-9.4063e-004
 165.727;   24.84000;-9.2344e-004
 166.601;   25.02000;-9.0625e-004
 167.473;   25.20000;-8.9010e-004
 168.342;   25.38000;-8.7240e-004
 169.22;   25.56000;-8.5573e-004
 170.104;   25.74000;-8.3698e-004
 170.988;   25.92000;-8.1875e-004
 171.845;   26.10000;-8.0260e-004
 172.724;   26.28000;-7.8490e-004
 173.606;   26.46000;-7.6823e-004
 174.469;   26.64000;-7.5052e-004
 175.349;   26.82000;-7.3281e-004
 176.235;   27.00000;-7.2083e-004
 177.107;   27.18000;-7.0104e-004
 177.991;   27.36000;-6.8490e-004
 178.86;   27.54000;-6.6875e-004
 179.76;   27.72000;-6.5313e-004
 180.64;   27.90000;-6.3646e-004
 181.53;   28.08000;-6.1875e-004
 182.407;   28.26000;-6.0521e-004
 183.284;   28.44000;-5.9167e-004
 184.17;   28.62000;-5.7552e-004
 185.061;   28.80000;-5.5938e-004
 185.942;   28.98000;-5.4167e-004
 186.831;   29.16000;-5.2917e-004
 187.723;   29.34000;-5.1302e-004
 188.607;   29.52000;-4.9635e-004
 189.5;   29.70000;-4.8177e-004
 190.373;   29.88000;-4.6406e-004
 191.273;   30.06000;-4.5052e-004
 192.168;   30.24000;-4.3438e-004
 193.052;   30.42000;-4.1927e-004
 193.952;   30.60000;-4.0313e-004
 194.845;   30.78000;-3.8958e-004
 195.737;   30.96000;-3.7656e-004
 196.623;   31.14000;-3.6094e-004
 197.526;   31.32000;-3.4688e-004
 198.412;   31.50000;-3.3542e-004
 199.314;   31.68000;-3.1771e-004
 200.194;   31.86000;-3.0521e-004
 201.097;   32.04000;-2.8750e-004
 201.997;   32.22000;-2.7031e-004
 202.892;   32.40000;-2.5573e-004
 203.78;   32.58000;-2.4271e-004
 204.687;   32.76000;-2.2813e-004
 205.584;   32.94000;-2.1094e-004
 206.487;   33.12000;-1.9792e-004
 207.378;   33.30000;-1.8385e-004
 208.282;   33.48000;-1.6979e-004
 209.188;   33.66000;-1.5469e-004
 210.081;   33.84000;-1.4010e-004
 210.977;   34.02000;-1.2760e-004
 211.884;   34.20000;-1.0938e-004
 212.791;   34.38000;-9.6875e-005
 213.695;   34.56000;-8.1771e-005
 214.583;   34.74000;-6.6667e-005
 215.488;   34.92000;-5.2083e-005
 216.407;   35.10000;-3.8542e-005
 217.312;   35.28000;-2.5000e-005
 218.209;   35.46000;-9.8958e-006
 219.108;   35.64000; 2.0833e-006
 220.01;   35.82000; 1.7708e-005
 220.921;   36.00000; 3.1771e-005
 221.82;   36.18000; 4.5313e-005
 222.732;   36.36000; 6.0417e-005
 223.632;   36.54000; 7.3958e-005
 224.536;   36.72000; 8.6458e-005
 225.444;   36.90000; 9.7917e-005
 226.352;   37.08000; 1.1406e-004
 227.254;   37.26000; 1.2552e-004
 228.156;   37.44000; 1.3177e-004
 229.056;   37.62000; 1.4427e-004
 229.981;   37.80000; 1.5469e-004
 230.879;   37.98000; 1.6875e-004
 231.795;   38.16000; 1.8073e-004
 232.7;   38.34000; 1.9427e-004
 233.603;   38.52000; 2.0729e-004
 234.525;   38.70000; 2.2135e-004
 235.426;   38.88000; 2.3490e-004
 236.333;   39.06000; 2.4635e-004
 237.243;   39.24000; 2.5938e-004
 238.158;   39.42000; 2.7396e-004
 239.056;   39.60000; 2.8646e-004
 239.995;   39.78000; 2.9844e-004
 240.89;   39.96000; 3.1250e-004
 241.815;   40.14000; 3.2500e-004
 242.731;   40.32000; 3.3802e-004
 243.641;   40.50000; 3.5208e-004
 244.557;   40.68000; 3.6510e-004
 245.465;   40.86000; 3.8281e-004
 246.387;   41.04000; 3.9583e-004
 247.299;   41.22000; 4.1094e-004
 248.217;   41.40000; 4.2344e-004
 249.137;   41.58000; 4.3906e-004
 250.048;   41.76000; 4.5729e-004
 250.976;   41.94000; 4.7031e-004
 251.901;   42.12000; 4.8646e-004
 252.815;   42.30000; 5.0156e-004
 253.744;   42.48000; 5.1615e-004
 254.675;   42.66000; 5.2865e-004
 255.599;   42.84000; 5.4688e-004
 256.528;   43.02000; 5.5990e-004
 257.444;   43.20000; 5.7865e-004
 258.382;   43.38000; 5.9427e-004
 259.302;   43.56000; 6.0885e-004
 260.231;   43.74000; 6.2604e-004
 261.162;   43.92000; 6.4531e-004
 262.074;   44.10000; 6.6198e-004
 263.011;   44.28000; 6.7656e-004
 263.958;   44.46000; 6.9063e-004
 264.903;   44.64000; 7.0521e-004
 265.816;   44.82000; 7.1771e-004
 266.753;   45.00000; 7.2656e-004
 267.67;   45.18000; 7.4167e-004
 268.612;   45.36000; 7.5677e-004
 269.529;   45.54000; 7.7292e-004
 270.463;   45.72000; 7.8750e-004
 271.372;   45.90000; 8.0156e-004
 272.305;   46.08000; 8.1771e-004
 273.196;   46.26000; 8.3490e-004
 274.104;   46.44000; 8.5104e-004
 275.017;   46.62000; 8.6354e-004
 275.934;   46.80000; 8.7865e-004
 276.81;   46.98000; 8.9531e-004
 277.708;   47.16000; 9.1406e-004
 278.598;   47.34000; 9.2708e-004
 279.487;   47.52000; 9.4635e-004
 280.383;   47.70000; 9.5990e-004
 281.261;   47.88000; 9.7708e-004
 282.104;   48.06000; 9.9167e-004
 282.988;   48.24000; 1.0042e-003
 283.832;   48.42000; 1.0188e-003
 284.699;   48.60000; 1.0318e-003
 285.553;   48.78000; 1.0458e-003
 286.48;   48.96000; 1.0620e-003
 287.478;   49.14000; 1.0771e-003
 288.52;   49.32000; 1.0896e-003
 289.392;   49.50000; 1.1052e-003
 290.227;   49.68000; 1.1214e-003
 291.005;   49.86000; 1.1375e-003
 291.739;   50.04000; 1.1510e-003
 292.492;   50.22000; 1.1688e-003
 293.218;   50.40000; 1.1828e-003
 293.953;   50.58000; 1.1958e-003
 294.702;   50.76000; 1.2109e-003
 295.447;   50.94000; 1.2234e-003
 296.205;   51.12000; 1.2354e-003
 296.973;   51.30000; 1.2438e-003
 297.75;   51.48000; 1.2542e-003
 298.535;   51.66000; 1.2641e-003
 299.332;   51.84000; 1.2745e-003
 300.134;   52.02000; 1.2828e-003
 300.964;   52.20000; 1.2870e-003
 301.788;   52.38000; 1.3005e-003
 302.633;   52.56000; 1.3089e-003
 303.493;   52.74000; 1.3156e-003
 304.362;   52.92000; 1.3203e-003
 305.251;   53.10000; 1.3214e-003
 306.149;   53.28000; 1.3245e-003
 307.051;   53.46000; 1.3281e-003
 307.964;   53.64000; 1.3344e-003
 308.893;   53.82000; 1.3396e-003
 309.83;   54.00000; 1.3495e-003
 310.764;   54.18000; 1.3542e-003
 311.703;   54.36000; 1.3615e-003
 312.649;   54.54000; 1.3703e-003
 313.599;   54.72000; 1.3781e-003
 314.543;   54.90000; 1.3901e-003
 315.501;   55.08000; 1.4005e-003
 316.458;   55.26000; 1.4094e-003
 317.411;   55.44000; 1.4203e-003
 318.358;   55.62000; 1.4318e-003
 319.304;   55.80000; 1.4432e-003
 320.27;   55.98000; 1.4594e-003
 321.211;   56.16000; 1.4724e-003
 322.155;   56.34000; 1.4875e-003
 323.103;   56.52000; 1.5000e-003
 324.05;   56.70000; 1.5151e-003
 324.993;   56.88000; 1.5339e-003
 325.941;   57.06000; 1.5510e-003
 326.881;   57.24000; 1.5667e-003
 327.808;   57.42000; 1.5865e-003
 328.753;   57.60000; 1.6036e-003
 329.684;   57.78000; 1.6167e-003
 330.622;   57.96000; 1.6406e-003
 331.551;   58.14000; 1.6578e-003
 332.48;   58.32000; 1.6776e-003
 333.41;   58.50000; 1.6969e-003
 334.328;   58.68000; 1.7151e-003
 335.259;   58.86000; 1.7380e-003
 336.18;   59.04000; 1.7563e-003
 337.103;   59.22000; 1.7781e-003
 338.021;   59.40000; 1.8000e-003
 338.941;   59.58000; 1.8203e-003
 339.848;   59.76000; 1.8417e-003
 340.761;   59.94000; 1.8641e-003
 341.685;   60.12000; 1.8833e-003
 342.585;   60.30000; 1.9057e-003
 343.509;   60.48000; 1.9281e-003
 344.409;   60.66000; 1.9469e-003
 345.325;   60.84000; 1.9698e-003
 346.222;   61.02000; 1.9891e-003
 347.135;   61.20000; 2.0094e-003
 348.038;   61.38000; 2.0302e-003
 348.945;   61.56000; 2.0510e-003
 349.843;   61.74000; 2.0703e-003
 350.755;   61.92000; 2.0896e-003
 351.662;   62.10000; 2.1099e-003
 352.567;   62.28000; 2.1318e-003
 353.465;   62.46000; 2.1510e-003
 354.361;   62.64000; 2.1698e-003
 355.271;   62.82000; 2.1885e-003
 356.164;   63.00000; 2.2104e-003
 357.06;   63.18000; 2.2297e-003
 357.967;   63.36000; 2.2479e-003
 358.881;   63.54000; 2.2688e-003
 359.769;   63.72000; 2.2901e-003
 360.666;   63.90000; 2.3104e-003
 361.57;   64.08000; 2.3328e-003
 362.473;   64.26000; 2.3531e-003
 363.365;   64.44000; 2.3734e-003
 364.263;   64.62000; 2.3922e-003
 365.166;   64.80000; 2.4141e-003
 366.059;   64.98000; 2.4333e-003
 366.972;   65.16000; 2.4516e-003
 367.857;   65.34000; 2.4714e-003
 368.755;   65.52000; 2.4906e-003
 369.656;   65.70000; 2.5099e-003
 370.56;   65.88000; 2.5281e-003
 371.45;   66.06000; 2.5443e-003
 372.361;   66.24000; 2.5651e-003
 373.249;   66.42000; 2.5859e-003
 374.156;   66.60000; 2.6021e-003
 375.053;   66.78000; 2.6188e-003
 375.943;   66.96000; 2.6359e-003
 376.839;   67.14000; 2.6542e-003
 377.736;   67.32000; 2.6708e-003
 378.635;   67.50000; 2.6865e-003
 379.527;   67.68000; 2.7042e-003
 380.434;   67.86000; 2.7198e-003
 381.335;   68.04000; 2.7380e-003
 382.224;   68.22000; 2.7526e-003
 383.133;   68.40000; 2.7698e-003
 384.03;   68.58000; 2.7833e-003
 384.916;   68.76000; 2.8016e-003
 385.831;   68.94000; 2.8172e-003
 386.723;   69.12000; 2.8333e-003
 387.621;   69.30000; 2.8500e-003
 388.532;   69.48000; 2.8625e-003
 389.427;   69.66000; 2.8750e-003
 390.318;   69.84000; 2.8948e-003
 391.222;   70.02000; 2.9073e-003
 392.111;   70.20000; 2.9229e-003
 393.02;   70.38000; 2.9385e-003
 393.92;   70.56000; 2.9505e-003
 394.815;   70.74000; 2.9646e-003
 395.712;   70.92000; 2.9797e-003
 396.616;   71.10000; 2.9896e-003
 397.507;   71.28000; 3.0057e-003
 398.404;   71.46000; 3.0156e-003
 399.318;   71.64000; 3.0313e-003
 400.211;   71.82000; 3.0438e-003
 401.112;   72.00000; 3.0568e-003
 402.006;   72.18000; 3.0672e-003
 402.913;   72.36000; 3.0802e-003
 403.805;   72.54000; 3.0875e-003
 404.706;   72.72000; 3.1021e-003
 405.608;   72.90000; 3.1151e-003
 406.511;   73.08000; 3.1255e-003
 407.407;   73.26000; 3.1328e-003
 408.303;   73.44000; 3.1479e-003
 409.209;   73.62000; 3.1573e-003
 410.097;   73.80000; 3.1667e-003
 410.992;   73.98000; 3.1792e-003
 411.898;   74.16000; 3.1880e-003
 412.805;   74.34000; 3.1990e-003
 413.701;   74.52000; 3.2094e-003
 414.601;   74.70000; 3.2182e-003
 415.498;   74.88000; 3.2318e-003
 416.405;   75.06000; 3.2411e-003
 417.296;   75.24000; 3.2521e-003
 418.197;   75.42000; 3.2615e-003
 419.092;   75.60000; 3.2708e-003
 419.997;   75.78000; 3.2802e-003
 420.88;   75.96000; 3.2917e-003
 421.788;   76.14000; 3.3021e-003
 422.693;   76.32000; 3.3089e-003
 423.595;   76.50000; 3.3229e-003
 424.493;   76.68000; 3.3313e-003
 425.395;   76.86000; 3.3448e-003
 426.289;   77.04000; 3.3490e-003
 427.195;   77.22000; 3.3641e-003
 428.093;   77.40000; 3.3724e-003
 428.99;   77.58000; 3.3828e-003
 429.894;   77.76000; 3.3958e-003
 430.796;   77.94000; 3.4073e-003
 431.688;   78.12000; 3.4151e-003
 432.582;   78.30000; 3.4240e-003
 433.485;   78.48000; 3.4391e-003
 434.38;   78.66000; 3.4500e-003
 435.293;   78.84000; 3.4609e-003
 436.183;   79.02000; 3.4750e-003
 437.086;   79.20000; 3.4849e-003
 437.985;   79.38000; 3.4990e-003
 438.894;   79.56000; 3.5120e-003
 439.779;   79.74000; 3.5234e-003
 440.676;   79.92000; 3.5359e-003
 441.574;   80.10000; 3.5469e-003
 442.478;   80.28000; 3.5609e-003
 443.373;   80.46000; 3.5792e-003
 444.28;   80.64000; 3.5880e-003
 445.168;   80.82000; 3.6063e-003
 446.069;   81.00000; 3.6188e-003
 446.974;   81.18000; 3.6344e-003
 447.871;   81.36000; 3.6510e-003
 448.774;   81.54000; 3.6667e-003
 449.671;   81.72000; 3.6828e-003
 450.567;   81.90000; 3.6964e-003
 451.469;   82.08000; 3.7146e-003
 452.369;   82.26000; 3.7276e-003
 453.267;   82.44000; 3.7490e-003
 454.167;   82.62000; 3.7661e-003
 455.063;   82.80000; 3.7813e-003
 455.955;   82.98000; 3.7984e-003
 456.864;   83.16000; 3.8135e-003
 457.758;   83.34000; 3.8344e-003
 458.663;   83.52000; 3.8484e-003
 459.558;   83.70000; 3.8667e-003
 460.472;   83.88000; 3.8828e-003
 461.361;   84.06000; 3.9031e-003
 462.26;   84.24000; 3.9188e-003
 463.165;   84.42000; 3.9401e-003
 464.063;   84.60000; 3.9578e-003
 464.955;   84.78000; 3.9755e-003
 465.857;   84.96000; 3.9953e-003
 466.759;   85.14000; 4.0156e-003
 467.656;   85.32000; 4.0307e-003
 468.555;   85.50000; 4.0521e-003
 469.453;   85.68000; 4.0724e-003
 470.357;   85.86000; 4.0891e-003
 471.258;   86.04000; 4.1083e-003
 472.162;   86.22000; 4.1318e-003
 473.06;   86.40000; 4.1516e-003
 473.96;   86.58000; 4.1672e-003
 474.864;   86.76000; 4.1823e-003
 475.757;   86.94000; 4.2068e-003
 476.659;   87.12000; 4.2255e-003
 477.553;   87.30000; 4.2448e-003
 478.464;   87.48000; 4.2656e-003
 479.353;   87.66000; 4.2823e-003
 480.256;   87.84000; 4.3031e-003
 481.15;   88.02000; 4.3219e-003
 482.057;   88.20000; 4.3432e-003
 482.96;   88.38000; 4.3578e-003
 483.858;   88.56000; 4.3807e-003
 484.753;   88.74000; 4.3984e-003
 485.659;   88.92000; 4.4214e-003
 486.554;   89.10000; 4.4401e-003
 487.457;   89.28000; 4.4599e-003
 488.362;   89.46000; 4.4760e-003
 489.257;   89.64000; 4.4964e-003
 490.154;   89.82000; 4.5130e-003
 491.06;   90.00000; 4.5328e-003
 491.946;   90.18000; 4.5557e-003
 492.861;   90.36000; 4.5719e-003
 493.757;   90.54000; 4.5948e-003
 494.658;   90.72000; 4.6135e-003
 495.557;   90.90000; 4.6313e-003
 496.459;   91.08000; 4.6547e-003
 497.359;   91.26000; 4.6766e-003
 498.255;   91.44000; 4.6938e-003
 499.153;   91.62000; 4.7125e-003
 500.057;   91.80000; 4.7318e-003
 500.961;   91.98000; 4.7526e-003
 501.852;   92.16000; 4.7682e-003
 502.753;   92.34000; 4.7750e-003
 503.656;   92.52000; 4.7958e-003
 504.558;   92.70000; 4.8068e-003
 505.448;   92.88000; 4.8271e-003
 506.356;   93.06000; 4.8422e-003
 507.258;   93.24000; 4.8583e-003
 508.152;   93.42000; 4.8818e-003
 509.046;   93.60000; 4.8958e-003
 509.952;   93.78000; 4.9120e-003
 510.848;   93.96000; 4.9286e-003
 511.75;   94.14000; 4.9448e-003
 512.652;   94.32000; 4.9672e-003
 513.556;   94.50000; 4.9813e-003
 514.451;   94.68000; 4.9995e-003
 515.357;   94.86000; 5.0172e-003
 516.254;   95.04000; 5.0328e-003
 517.161;   95.22000; 5.0542e-003
 518.052;   95.40000; 5.0724e-003
 518.958;   95.58000; 5.0896e-003
 519.849;   95.76000; 5.1073e-003
 520.746;   95.94000; 5.1271e-003
 521.649;   96.12000; 5.1443e-003
 522.546;   96.30000; 5.1651e-003
 523.454;   96.48000; 5.1833e-003
 524.353;   96.66000; 5.2016e-003
 525.261;   96.84000; 5.2177e-003
 526.152;   97.02000; 5.2396e-003
 527.052;   97.20000; 5.2583e-003
 527.961;   97.38000; 5.2766e-003
 528.852;   97.56000; 5.2917e-003
 529.752;   97.74000; 5.3135e-003
 530.659;   97.92000; 5.3302e-003
 531.552;   98.10000; 5.3432e-003
 532.449;   98.28000; 5.3682e-003
 533.358;   98.46000; 5.3870e-003
 534.259;   98.64000; 5.4068e-003
 535.155;   98.82000; 5.4245e-003
 536.059;   99.00000; 5.4411e-003
 536.949;   99.18000; 5.4609e-003
 537.842;   99.36000; 5.4776e-003
 538.748;   99.54000; 5.4938e-003
 539.653;   99.72000; 5.5146e-003
 540.545;   99.90000; 5.5297e-003
 541.442;  100.08; 5.5526e-003
 542.355;  100.26; 5.5641e-003
 543.259;  100.44; 5.5849e-003
 544.14;  100.62; 5.6057e-003
 545.048;  100.8; 5.6229e-003
 545.957;  100.98; 5.6401e-003
 546.84;  101.16; 5.6583e-003
 547.751;  101.34; 5.6771e-003
 548.639;  101.52; 5.6953e-003
 549.55;  101.7; 5.7151e-003
 550.453;  101.88; 5.7260e-003
 551.348;  102.06; 5.7453e-003
 552.251;  102.24; 5.7604e-003
 553.149;  102.42; 5.7802e-003
 554.05;  102.6; 5.7995e-003
 554.935;  102.78; 5.8125e-003
 555.847;  102.96; 5.8333e-003
 556.752;  103.14; 5.8479e-003
 557.655;  103.32; 5.8677e-003
 558.545;  103.5; 5.8849e-003
 559.452;  103.68; 5.9021e-003
 560.353;  103.86; 5.9182e-003
 561.252;  104.04; 5.9323e-003
 562.142;  104.22; 5.9516e-003
 563.055;  104.4; 5.9714e-003
 563.95;  104.58; 5.9870e-003
 564.843;  104.76; 6.0052e-003
 565.743;  104.94; 6.0208e-003
 566.646;  105.12; 6.0354e-003
 567.538;  105.3; 6.0500e-003
 568.443;  105.48; 6.0682e-003
 569.355;  105.66; 6.0839e-003
 570.228;  105.84; 6.1010e-003
 571.155;  106.02; 6.1167e-003
 572.051;  106.2; 6.1328e-003
 572.946;  106.38; 6.1510e-003
 573.841;  106.56; 6.1682e-003
 574.747;  106.74; 6.1849e-003
 575.641;  106.92; 6.1990e-003
 576.535;  107.1; 6.2172e-003
 577.444;  107.28; 6.2318e-003
 578.34;  107.46; 6.2500e-003
 579.245;  107.64; 6.2656e-003
 580.142;  107.82; 6.2813e-003
 581.052;  108; 6.2974e-003
 581.934;  108.18; 6.3172e-003
 582.836;  108.36; 6.3276e-003
 583.749;  108.54; 6.3490e-003
 584.646;  108.72; 6.3604e-003
 585.535;  108.9; 6.3807e-003
 586.434;  109.08; 6.3948e-003
 587.332;  109.26; 6.4120e-003
 588.226;  109.44; 6.4255e-003
 589.132;  109.62; 6.4422e-003
 590.029;  109.8; 6.4526e-003
 590.936;  109.98; 6.4682e-003
 591.838;  110.16; 6.4849e-003
 592.744;  110.34; 6.4995e-003
 593.631;  110.52; 6.5125e-003
 594.532;  110.7; 6.5328e-003
 595.432;  110.88; 6.5432e-003
 596.328;  111.06; 6.5594e-003
 597.23;  111.24; 6.5740e-003
 598.144;  111.42; 6.5953e-003
 599.029;  111.6; 6.6083e-003
 599.926;  111.78; 6.6245e-003
 600.827;  111.96; 6.6365e-003
 601.725;  112.14; 6.6536e-003
 602.62;  112.32; 6.6682e-003
 603.518;  112.5; 6.6760e-003
 604.429;  112.68; 6.6917e-003
 605.316;  112.86; 6.7031e-003
 606.223;  113.04; 6.7219e-003
 607.113;  113.22; 6.7380e-003
 608.017;  113.4; 6.7510e-003
 608.915;  113.58; 6.7604e-003
 609.816;  113.76; 6.7807e-003
 610.701;  113.94; 6.7943e-003
 611.617;  114.12; 6.8083e-003
 612.521;  114.3; 6.8120e-003
 613.402;  114.48; 6.8349e-003
 614.311;  114.66; 6.8438e-003
 615.203;  114.84; 6.8615e-003
 616.111;  115.02; 6.8740e-003
 617.001;  115.2; 6.8891e-003
 617.911;  115.38; 6.9026e-003
 618.81;  115.56; 6.9130e-003
 619.701;  115.74; 6.9224e-003
 620.61;  115.92; 6.9385e-003
 621.499;  116.1; 6.9516e-003
 622.393;  116.28; 6.9615e-003
 623.291;  116.46; 6.9750e-003
 624.191;  116.64; 6.9844e-003
 625.092;  116.82; 6.9979e-003
 625.993;  117; 7.0109e-003
 626.892;  117.18; 7.0193e-003
 627.783;  117.36; 7.0318e-003
 628.694;  117.54; 7.0453e-003
 629.589;  117.72; 7.0578e-003
 630.484;  117.9; 7.0693e-003
 631.391;  118.08; 7.0786e-003
 632.281;  118.26; 7.0859e-003
 633.179;  118.44; 7.0995e-003
 634.071;  118.62; 7.1156e-003
 634.981;  118.8; 7.1240e-003
 635.889;  118.98; 7.1365e-003
 636.78;  119.16; 7.1474e-003
 637.675;  119.34; 7.1583e-003
 638.564;  119.52; 7.1646e-003
 639.462;  119.7; 7.1719e-003
 640.366;  119.88; 7.1849e-003
 641.264;  120.06; 7.1964e-003
 642.168;  120.24; 7.2078e-003
 643.062;  120.42; 7.2177e-003
 643.965;  120.6; 7.2250e-003
 644.855;  120.78; 7.2365e-003
 645.758;  120.96; 7.2438e-003
 646.658;  121.14; 7.2552e-003
 647.546;  121.32; 7.2656e-003
 648.449;  121.5; 7.2661e-003
 649.34;  121.68; 7.2781e-003
 650.245;  121.86; 7.2859e-003
 651.14;  122.04; 7.2938e-003
 652.042;  122.22; 7.2990e-003
 652.934;  122.4; 7.3052e-003
 653.834;  122.58; 7.3130e-003
 654.734;  122.76; 7.3250e-003
 655.633;  122.94; 7.3323e-003
 656.533;  123.12; 7.3464e-003
 657.441;  123.3; 7.3620e-003
 658.338;  123.48; 7.3745e-003
 659.243;  123.66; 7.3906e-003
 660.144;  123.84; 7.4010e-003
 661.036;  124.02; 7.4182e-003
 661.949;  124.2; 7.4307e-003
 662.847;  124.38; 7.4432e-003
 663.745;  124.56; 7.4573e-003
 664.647;  124.74; 7.4630e-003
 665.532;  124.92; 7.4724e-003
 666.448;  125.1; 7.4880e-003
 667.343;  125.28; 7.5010e-003
 668.245;  125.46; 7.5120e-003
 669.132;  125.64; 7.5224e-003
 670.029;  125.82; 7.5313e-003
 670.932;  126; 7.5417e-003
 671.839;  126.18; 7.5521e-003
 672.735;  126.36; 7.5594e-003
 673.641;  126.54; 7.5750e-003
 674.527;  126.72; 7.5818e-003
 675.426;  126.9; 7.5969e-003
 676.331;  127.08; 7.6047e-003
 677.237;  127.26; 7.6130e-003
 678.123;  127.44; 7.6260e-003
 679.033;  127.62; 7.6349e-003
 679.928;  127.8; 7.6339e-003
 680.816;  127.98; 7.6526e-003
 681.721;  128.16; 7.6651e-003
 682.625;  128.34; 7.6708e-003
 683.52;  128.52; 7.6797e-003
 684.43;  128.7; 7.6875e-003
 685.336;  128.88; 7.7031e-003
 686.23;  129.06; 7.7109e-003
 687.12;  129.24; 7.7198e-003
 688.029;  129.42; 7.7328e-003
 688.908;  129.6; 7.7406e-003
 689.818;  129.78; 7.7495e-003
 690.721;  129.96; 7.7578e-003
 691.627;  130.14; 7.7703e-003
 692.521;  130.32; 7.7755e-003
 693.416;  130.5; 7.7880e-003
 694.314;  130.68; 7.7891e-003
 695.213;  130.86; 7.8068e-003
 696.117;  131.04; 7.8109e-003
 697.01;  131.22; 7.8125e-003
 697.911;  131.4; 7.8292e-003
 698.815;  131.58; 7.8391e-003
 699.716;  131.76; 7.8443e-003
 700.619;  131.94; 7.8516e-003
 701.509;  132.12; 7.8604e-003
 702.399;  132.3; 7.8682e-003
 703.309;  132.48; 7.8766e-003
 704.216;  132.66; 7.8844e-003
 705.102;  132.84; 7.8885e-003
 706.003;  133.02; 7.8964e-003
 706.902;  133.2; 7.9016e-003
 707.807;  133.38; 7.9109e-003
 708.698;  133.56; 7.9240e-003
 709.595;  133.74; 7.9286e-003
 710.49;  133.92; 7.9318e-003
 711.383;  134.1; 7.9391e-003
 712.29;  134.28; 7.9536e-003
 713.186;  134.46; 7.9542e-003
 714.097;  134.64; 7.9620e-003
 714.995;  134.82; 7.9708e-003
 715.904;  135; 7.9693e-003
 716.776;  135.18; 7.9828e-003
 717.688;  135.36; 7.9896e-003
 718.583;  135.54; 7.9953e-003
 719.477;  135.72; 7.9995e-003
 720.382;  135.9; 8.0047e-003
 721.284;  136.08; 8.0073e-003
 722.178;  136.26; 8.0104e-003
 723.071;  136.44; 8.0089e-003
 723.969;  136.62; 8.0135e-003
 724.871;  136.8; 8.0229e-003
 725.77;  136.98; 8.0281e-003
 726.661;  137.16; 8.0255e-003
 727.571;  137.34; 8.0354e-003
 728.466;  137.52; 8.0344e-003
 729.362;  137.7; 8.0359e-003
 730.258;  137.88; 8.0406e-003
 731.163;  138.06; 8.0427e-003
 732.068;  138.24; 8.0505e-003
 732.963;  138.42; 8.0490e-003
 733.863;  138.6; 8.0484e-003
 734.766;  138.78; 8.0505e-003
 735.654;  138.96; 8.0469e-003
 736.557;  139.14; 8.0573e-003
 737.447;  139.32; 8.0547e-003
 738.36;  139.5; 8.0573e-003
 739.25;  139.68; 8.0594e-003
 740.145;  139.86; 8.0589e-003
 741.047;  140.04; 8.0578e-003
 741.951;  140.22; 8.0573e-003
 742.844;  140.4; 8.0510e-003
 743.751;  140.58; 8.0594e-003
 744.653;  140.76; 8.0547e-003
 745.551;  140.94; 8.0536e-003
 746.446;  141.12; 8.0557e-003
 747.344;  141.3; 8.0495e-003
 748.251;  141.48; 8.0500e-003
 749.149;  141.66; 8.0458e-003
 750.052;  141.84; 8.0427e-003
 750.948;  142.02; 8.0401e-003
 751.838;  142.2; 8.0344e-003
 752.748;  142.38; 8.0344e-003
 753.636;  142.56; 8.0292e-003
 754.543;  142.74; 8.0229e-003
 755.44;  142.92; 8.0104e-003
 756.333;  143.1; 8.0120e-003
 757.233;  143.28; 8.0052e-003
 758.135;  143.46; 8.0031e-003
 759.035;  143.64; 7.9943e-003
 759.938;  143.82; 7.9896e-003
 760.835;  144; 7.9802e-003
 761.733;  144.18; 7.9714e-003
 762.637;  144.36; 7.9630e-003
 763.537;  144.54; 7.9453e-003
 764.429;  144.72; 7.9380e-003
 765.321;  144.9; 7.9318e-003
 766.228;  145.08; 7.9146e-003
 767.117;  145.26; 7.9073e-003
 768.02;  145.44; 7.8974e-003
 768.925;  145.62; 7.8792e-003
 769.814;  145.8; 7.8719e-003
 770.716;  145.98; 7.8557e-003
 771.613;  146.16; 7.8391e-003
 772.514;  146.34; 7.8297e-003
 773.415;  146.52; 7.8120e-003
 774.308;  146.7; 7.7953e-003
 775.217;  146.88; 7.7771e-003
 776.113;  147.06; 7.7599e-003
 777.006;  147.24; 7.7359e-003
 777.906;  147.42; 7.7208e-003
 778.806;  147.6; 7.6995e-003
 779.706;  147.78; 7.6776e-003
 780.609;  147.96; 7.6542e-003
 781.505;  148.14; 7.6349e-003
 782.399;  148.32; 7.6068e-003
 783.302;  148.5; 7.5875e-003
 784.202;  148.68; 7.5677e-003
 785.102;  148.86; 7.5396e-003
 786;  149.04; 7.5182e-003
 786.902;  149.22; 7.4948e-003
 787.803;  149.4; 7.4641e-003
 788.69;  149.58; 7.4328e-003
 789.603;  149.76; 7.4182e-003
 790.488;  149.94; 7.3875e-003
 791.395;  150.12; 7.3563e-003
 792.295;  150.3; 7.3271e-003
 793.188;  150.48; 7.3031e-003
 794.096;  150.66; 7.2703e-003
 794.997;  150.84; 7.2354e-003
 795.879;  151.02; 7.2042e-003
 796.782;  151.2; 7.1703e-003
 797.682;  151.38; 7.1344e-003
 798.582;  151.56; 7.1031e-003
 799.49;  151.74; 7.0646e-003
 800.392;  151.92; 7.0302e-003
 801.281;  152.1; 6.9870e-003
 802.188;  152.28; 6.9474e-003
 803.088;  152.46; 6.9063e-003
 803.977;  152.64; 6.8714e-003
 804.889;  152.82; 6.8260e-003
 805.774;  153; 6.7865e-003
 806.678;  153.18; 6.7380e-003
 807.582;  153.36; 6.6938e-003
 808.483;  153.54; 6.6469e-003
 809.374;  153.72; 6.5979e-003
 810.29;  153.9; 6.5547e-003
 811.181;  154.08; 6.5068e-003
 812.09;  154.26; 6.4578e-003
 812.986;  154.44; 6.4057e-003
 813.866;  154.62; 6.3583e-003
 814.774;  154.8; 6.3005e-003
 815.69;  154.98; 6.2568e-003
 816.578;  155.16; 6.2057e-003
 817.474;  155.34; 6.1495e-003
 818.376;  155.52; 6.1000e-003
 819.272;  155.7; 6.0469e-003
 820.176;  155.88; 5.9911e-003
 821.078;  156.06; 5.9297e-003
 821.972;  156.24; 5.8734e-003
 822.872;  156.42; 5.8068e-003
 823.775;  156.6; 5.7422e-003
 824.673;  156.78; 5.6766e-003
 825.569;  156.96; 5.6115e-003
 826.471;  157.14; 5.5458e-003
 827.375;  157.32; 5.4865e-003
 828.269;  157.5; 5.4141e-003
 829.158;  157.68; 5.3573e-003
 830.059;  157.86; 5.2870e-003
 830.972;  158.04; 5.2245e-003
 831.864;  158.22; 5.1547e-003
 832.761;  158.4; 5.0865e-003
 833.668;  158.58; 5.0203e-003
 834.562;  158.76; 4.9531e-003
 835.46;  158.94; 4.8802e-003
 836.364;  159.12; 4.8109e-003
 837.262;  159.3; 4.7365e-003
 838.157;  159.48; 4.6609e-003
 839.069;  159.66; 4.5906e-003
 839.948;  159.84; 4.5156e-003
 840.866;  160.02; 4.4422e-003
 841.758;  160.2; 4.3630e-003
 842.655;  160.38; 4.2823e-003
 843.551;  160.56; 4.2083e-003
 844.448;  160.74; 4.1245e-003
 845.344;  160.92; 4.0469e-003
 846.256;  161.1; 3.9620e-003
 847.155;  161.28; 3.8823e-003
 848.046;  161.46; 3.7922e-003
 848.952;  161.64; 3.7146e-003
 849.844;  161.82; 3.6245e-003
 850.747;  162; 3.5422e-003
 851.639;  162.18; 3.4552e-003
 852.536;  162.36; 3.3688e-003
 853.441;  162.54; 3.2781e-003
 854.35;  162.72; 3.1906e-003
 855.234;  162.9; 3.0953e-003
 856.136;  163.08; 3.0016e-003
 857.032;  163.26; 2.9057e-003
 857.935;  163.44; 2.8172e-003
 858.828;  163.62; 2.7177e-003
 859.718;  163.8; 2.6266e-003
 860.622;  163.98; 2.5307e-003
 861.526;  164.16; 2.4302e-003
 862.427;  164.34; 2.3333e-003
 863.318;  164.52; 2.2333e-003
 864.223;  164.7; 2.1313e-003
 865.111;  164.88; 2.0453e-003
 866.018;  165.06; 1.9568e-003
 866.914;  165.24; 1.8630e-003
 867.813;  165.42; 1.7703e-003
 868.71;  165.6; 1.6714e-003
 869.62;  165.78; 1.5724e-003
 870.514;  165.96; 1.4682e-003
 871.416;  166.14; 1.3688e-003
 872.327;  166.32; 1.2641e-003
 873.211;  166.5; 1.1599e-003
 874.111;  166.68; 1.0495e-003
 875.005;  166.86; 9.4792e-004
 875.916;  167.04; 8.4219e-004
 876.814;  167.22; 7.3229e-004
 877.699;  167.4; 6.2031e-004
 878.604;  167.58; 5.1146e-004
 879.503;  167.76; 3.9792e-004
 880.4;  167.94; 2.8177e-004
 881.308;  168.12; 1.7083e-004
 882.195;  168.3; 5.5729e-005
 883.093;  168.48;-5.9375e-005
 884.001;  168.66;-1.7604e-004
 884.91;  168.84;-2.9583e-004
 885.796;  169.02;-4.1719e-004
 886.697;  169.2;-5.3490e-004
 887.593;  169.38;-6.5365e-004
 888.489;  169.56;-7.7708e-004
 889.403;  169.74;-8.9948e-004
 890.298;  169.92;-1.0224e-003
 891.193;  170.1;-1.1479e-003
 892.096;  170.28;-1.2760e-003
 892.989;  170.46;-1.4026e-003
 893.893;  170.64;-1.5318e-003
 894.795;  170.82;-1.6599e-003
 895.69;  171;-1.7911e-003
 896.587;  171.18;-1.9224e-003
 897.493;  171.36;-2.0521e-003
 898.39;  171.54;-2.1870e-003
 899.288;  171.72;-2.3198e-003
 900.191;  171.9;-2.4557e-003
 901.09;  172.08;-2.5932e-003
 901.993;  172.26;-2.7323e-003
 902.883;  172.44;-2.8698e-003
 903.784;  172.62;-3.0094e-003
 904.686;  172.8;-3.1500e-003
 905.586;  172.98;-3.2922e-003
 906.473;  173.16;-3.4349e-003
 907.386;  173.34;-3.5766e-003
 908.288;  173.52;-3.7234e-003
 909.189;  173.7;-3.8703e-003
 910.075;  173.88;-4.0151e-003
 910.973;  174.06;-4.1641e-003
 911.874;  174.24;-4.3115e-003
 912.784;  174.42;-4.4615e-003
 913.671;  174.6;-4.6115e-003
 914.58;  174.78;-4.7641e-003
 915.468;  174.96;-4.9161e-003
 916.379;  175.14;-5.0724e-003
 917.28;  175.32;-5.2276e-003
 918.172;  175.5;-5.3839e-003
 919.074;  175.68;-5.5401e-003
 919.979;  175.86;-5.6979e-003
 920.864;  176.04;-5.8583e-003
 921.776;  176.22;-6.0182e-003
 922.672;  176.4;-6.1792e-003
 923.572;  176.58;-6.3432e-003
 924.475;  176.76;-6.5078e-003
 925.366;  176.94;-6.6719e-003
 926.268;  177.12;-6.8385e-003
 927.175;  177.3;-7.0057e-003
 928.067;  177.48;-7.1724e-003
 928.973;  177.66;-7.3401e-003
 929.858;  177.84;-7.5083e-003
 930.764;  178.02;-7.6792e-003
 931.665;  178.2;-7.8474e-003
 932.551;  178.38;-8.0182e-003
 933.455;  178.56;-8.1896e-003
 934.37;  178.74;-8.3615e-003
 935.251;  178.92;-8.5333e-003
 936.155;  179.1;-8.7068e-003
 937.053;  179.28;-8.8828e-003
 937.947;  179.46;-9.0583e-003
 938.857;  179.64;-9.2323e-003
 939.752;  179.82;-9.4115e-003
 940.645;  180;-9.5875e-003
 941.546;  180.18;-9.7667e-003
 942.444;  180.36;-9.9464e-003
 943.345;  180.54;-1.0128e-002
 944.251;  180.72;-1.0309e-002
 945.142;  180.9;-1.0490e-002
 946.042;  181.08;-1.0672e-002
 946.928;  181.26;-1.0857e-002
 947.841;  181.44;-1.1042e-002
 948.736;  181.62;-1.1227e-002
 949.628;  181.8;-1.1411e-002
 950.535;  181.98;-1.1603e-002
 951.44;  182.16;-1.1790e-002
 952.334;  182.34;-1.1978e-002
 953.237;  182.52;-1.2168e-002
 954.121;  182.7;-1.2356e-002
 955.029;  182.88;-1.2546e-002
 955.926;  183.06;-1.2737e-002
 956.836;  183.24;-1.2934e-002
 957.725;  183.42;-1.3124e-002
 958.628;  183.6;-1.3316e-002
 959.522;  183.78;-1.3514e-002
 960.422;  183.96;-1.3709e-002
 961.313;  184.14;-1.3903e-002
 962.22;  184.32;-1.4104e-002
 963.127;  184.5;-1.4301e-002
 964.02;  184.68;-1.4500e-002
 964.913;  184.86;-1.4698e-002
 965.828;  185.04;-1.4901e-002
 966.713;  185.22;-1.5106e-002
 967.612;  185.4;-1.5310e-002
 968.515;  185.58;-1.5513e-002
 969.405;  185.76;-1.5723e-002
 970.317;  185.94;-1.5933e-002
 971.219;  186.12;-1.6143e-002
 972.114;  186.3;-1.6348e-002
 973.016;  186.48;-1.6571e-002
 973.908;  186.66;-1.6786e-002
 974.807;  186.84;-1.7002e-002
 975.713;  187.02;-1.7227e-002
 976.6;  187.2;-1.7453e-002
 977.508;  187.38;-1.7679e-002
 978.407;  187.56;-1.7906e-002
 979.31;  187.74;-1.8134e-002
 980.224;  187.92;-1.8365e-002
 981.102;  188.1;-1.8593e-002
 981.999;  188.28;-1.8831e-002
 982.908;  188.46;-1.9060e-002
 983.802;  188.64;-1.9299e-002
 984.705;  188.82;-1.9527e-002
 985.609;  189;-1.9766e-002
 986.503;  189.18;-2.0006e-002
 987.407;  189.36;-2.0251e-002
 988.297;  189.54;-2.0498e-002
 989.194;  189.72;-2.0745e-002
 990.104;  189.9;-2.0988e-002
 991.016;  190.08;-2.1234e-002
 991.908;  190.26;-2.1485e-002
 992.804;  190.44;-2.1735e-002
 993.703;  190.62;-2.1976e-002
 994.611;  190.8;-2.2233e-002
 995.503;  190.98;-2.2488e-002
 996.403;  191.16;-2.2740e-002
 997.307;  191.34;-2.2990e-002
 998.206;  191.52;-2.3255e-002
 999.107;  191.7;-2.3504e-002
1000.01;  191.88;-2.3758e-002
1000.91;  192.06;-2.4010e-002
1001.81;  192.24;-2.4268e-002
1002.7;  192.42;-2.4534e-002
1003.59;  192.6;-2.4801e-002
1004.51;  192.78;-2.5056e-002
1005.41;  192.96;-2.5326e-002
1006.3;  193.14;-2.5586e-002
1007.21;  193.32;-2.5850e-002
1008.09;  193.5;-2.6132e-002
1008.99;  193.68;-2.6401e-002
1009.89;  193.86;-2.6675e-002
1010.79;  194.04;-2.6954e-002
1011.7;  194.22;-2.7236e-002
1012.6;  194.4;-2.7511e-002
1013.5;  194.58;-2.7789e-002
1014.4;  194.76;-2.8067e-002
1015.3;  194.94;-2.8353e-002
1016.2;  195.12;-2.8638e-002
1017.09;  195.3;-2.8928e-002
1018;  195.48;-2.9196e-002
1018.89;  195.66;-2.9506e-002
1019.81;  195.84;-2.9793e-002
1020.7;  196.02;-3.0078e-002
1021.6;  196.2;-3.0364e-002
1022.49;  196.38;-3.0658e-002
1023.39;  196.56;-3.0949e-002
1024.29;  196.74;-3.1242e-002
1025.2;  196.92;-3.1531e-002
1026.09;  197.1;-3.1845e-002
1027;  197.28;-3.2140e-002
1027.9;  197.46;-3.2441e-002
1028.8;  197.64;-3.2735e-002
1029.68;  197.82;-3.3033e-002
1030.59;  198;-3.3336e-002
1031.48;  198.18;-3.3636e-002
1032.38;  198.36;-3.3947e-002
1033.3;  198.54;-3.4264e-002
1034.19;  198.72;-3.4557e-002
1035.09;  198.9;-3.4881e-002
1036;  199.08;-3.5185e-002
1036.89;  199.26;-3.5493e-002
1037.78;  199.44;-3.5795e-002
1038.69;  199.62;-3.6105e-002
1039.58;  199.8;-3.6424e-002
1040.5;  199.98;-3.6717e-002
1041.38;  200.16;-3.7022e-002
1042.29;  200.34;-3.7342e-002
1043.18;  200.52;-3.7662e-002
1044.08;  200.7;-3.7980e-002
1044.98;  200.88;-3.8277e-002
1045.88;  201.06;-3.8579e-002
1046.78;  201.24;-3.8917e-002
1047.68;  201.42;-3.9232e-002
1048.57;  201.6;-3.9543e-002
1049.48;  201.78;-3.9851e-002
1050.37;  201.96;-4.0183e-002
1051.28;  202.14;-4.0501e-002
1052.18;  202.32;-4.0802e-002
1053.07;  202.5;-4.1134e-002
1053.98;  202.68;-4.1439e-002
1054.89;  202.86;-4.1768e-002
1055.77;  203.04;-4.2078e-002
1056.67;  203.22;-4.2411e-002
1057.56;  203.4;-4.2728e-002
1058.47;  203.58;-4.3022e-002
1059.36;  203.76;-4.3347e-002
1060.26;  203.94;-4.3671e-002
1061.16;  204.12;-4.3993e-002
1062.06;  204.3;-4.4299e-002
1062.96;  204.48;-4.4641e-002
1063.87;  204.66;-4.4940e-002
1064.76;  204.84;-4.5277e-002
1065.66;  205.02;-4.5597e-002
1066.56;  205.2;-4.5917e-002
1067.46;  205.38;-4.6219e-002
1068.36;  205.56;-4.6529e-002
1069.26;  205.74;-4.6852e-002
1070.16;  205.92;-4.7188e-002
1071.06;  206.1;-4.7500e-002
1071.96;  206.28;-4.7808e-002
1072.86;  206.46;-4.8144e-002
1073.75;  206.64;-4.8452e-002
1074.65;  206.82;-4.8789e-002
1075.55;  207;-4.9117e-002
1076.45;  207.18;-4.9440e-002
1077.35;  207.36;-4.9747e-002
1078.26;  207.54;-5.0068e-002
1079.14;  207.72;-5.0396e-002
1080.05;  207.9;-5.0731e-002
1080.95;  208.08;-5.1065e-002
1081.85;  208.26;-5.1374e-002
1082.76;  208.44;-5.1702e-002
1083.64;  208.62;-5.2025e-002
1084.54;  208.8;-5.2361e-002
1085.45;  208.98;-5.2684e-002
1086.35;  209.16;-5.3015e-002
1087.25;  209.34;-5.3330e-002
1088.14;  209.52;-5.3661e-002
1089.05;  209.7;-5.3983e-002
1089.95;  209.88;-5.4320e-002
1090.84;  210.06;-5.4652e-002
1091.76;  210.24;-5.4963e-002
1092.65;  210.42;-5.5296e-002
1093.55;  210.6;-5.5616e-002
1094.46;  210.78;-5.5974e-002
1095.34;  210.96;-5.6294e-002
1096.24;  211.14;-5.6620e-002
1097.15;  211.32;-5.6964e-002
1098.04;  211.5;-5.7290e-002
1098.94;  211.68;-5.7623e-002
1099.83;  211.86;-5.7950e-002
1100.74;  212.04;-5.8289e-002
1101.64;  212.22;-5.8601e-002
1102.53;  212.4;-5.8948e-002
1103.44;  212.58;-5.9270e-002
1104.34;  212.76;-5.9606e-002
1105.24;  212.94;-5.9910e-002
1106.13;  213.12;-6.0278e-002
1107.04;  213.3;-6.0597e-002
1107.93;  213.48;-6.0932e-002
1108.84;  213.66;-6.1230e-002
1109.74;  213.84;-6.1565e-002
1110.65;  214.02;-6.1905e-002
1111.53;  214.2;-6.2220e-002
1112.44;  214.38;-6.2556e-002
1113.34;  214.56;-6.2891e-002
1114.23;  214.74;-6.3222e-002
1115.13;  214.92;-6.3540e-002
1116.03;  215.1;-6.3890e-002
1116.93;  215.28;-6.4202e-002
1117.84;  215.46;-6.4541e-002
1118.73;  215.64;-6.4863e-002
1119.64;  215.82;-6.5177e-002
1120.52;  216;-6.5473e-002
1121.43;  216.18;-6.5838e-002
1122.32;  216.36;-6.6147e-002
1123.22;  216.54;-6.6476e-002
1124.14;  216.72;-6.6759e-002
1125.02;  216.9;-6.7089e-002
1125.93;  217.08;-6.7386e-002
1126.81;  217.26;-6.7762e-002
1127.72;  217.44;-6.8062e-002
1128.63;  217.62;-6.8385e-002
1129.51;  217.8;-6.8715e-002
1130.42;  217.98;-6.9038e-002
1131.33;  218.16;-6.9323e-002
1132.22;  218.34;-6.9690e-002
1133.12;  218.52;-6.9969e-002
1134.03;  218.7;-7.0256e-002
1134.91;  218.88;-7.0627e-002
1135.83;  219.06;-7.0913e-002
1136.72;  219.24;-7.1258e-002
1137.63;  219.42;-7.1560e-002
1138.52;  219.6;-7.1868e-002
1139.42;  219.78;-7.2161e-002
1140.32;  219.96;-7.2461e-002
1141.21;  220.14;-7.2789e-002
1142.12;  220.32;-7.3095e-002
1143.02;  220.5;-7.3380e-002
1143.92;  220.68;-7.3657e-002
1144.82;  220.86;-7.3993e-002
1145.71;  221.04;-7.4272e-002
1146.62;  221.22;-7.4559e-002
1147.51;  221.4;-7.4882e-002
1148.41;  221.58;-7.5170e-002
1149.31;  221.76;-7.5440e-002
1150.2;  221.94;-7.5745e-002
1151.11;  222.12;-7.5985e-002
1152.02;  222.3;-7.6271e-002
1152.91;  222.48;-7.6589e-002
1153.81;  222.66;-7.6873e-002
1154.71;  222.84;-7.7142e-002
1155.61;  223.02;-7.7412e-002
1156.53;  223.2;-7.7664e-002
1157.41;  223.38;-7.7921e-002
1158.31;  223.56;-7.8186e-002
1159.21;  223.74;-7.8473e-002
1160.12;  223.92;-7.8683e-002
1161;  224.1;-7.8997e-002
1161.91;  224.28;-7.9247e-002
1162.81;  224.46;-7.9488e-002
1163.69;  224.64;-7.9764e-002
1164.61;  224.82;-8.0008e-002
1165.52;  225;-8.0256e-002
1166.4;  225.18;-8.0458e-002
1167.31;  225.36;-8.0672e-002
1168.19;  225.54;-8.0963e-002
1169.1;  225.72;-8.1185e-002
1170;  225.9;-8.1376e-002
1170.89;  226.08;-8.1636e-002
1171.79;  226.26;-8.1903e-002
1172.7;  226.44;-8.2138e-002
1173.59;  226.62;-8.2354e-002
1174.49;  226.8;-8.2536e-002
1175.38;  226.98;-8.2766e-002
1176.29;  227.16;-8.3000e-002
1177.19;  227.34;-8.3181e-002
1178.09;  227.52;-8.3392e-002
1178.99;  227.7;-8.3641e-002
1179.9;  227.88;-8.3809e-002
1180.81;  228.06;-8.4034e-002
1181.7;  228.24;-8.4238e-002
1182.6;  228.42;-8.4397e-002
1183.5;  228.6;-8.4643e-002
1184.4;  228.78;-8.4822e-002
1185.3;  228.96;-8.5004e-002
1186.2;  229.14;-8.5226e-002
1187.11;  229.32;-8.5365e-002
1188;  229.5;-8.5526e-002
1188.91;  229.68;-8.5751e-002
1189.81;  229.86;-8.5922e-002
1190.7;  230.04;-8.6121e-002
1191.62;  230.22;-8.6314e-002
1192.52;  230.4;-8.6453e-002
1193.4;  230.58;-8.6674e-002
1194.31;  230.76;-8.6842e-002
1195.21;  230.94;-8.7005e-002
1196.11;  231.12;-8.7106e-002
1197.01;  231.3;-8.7346e-002
1197.92;  231.48;-8.7510e-002
1198.81;  231.66;-8.7665e-002
1199.7;  231.84;-8.7773e-002
1200.6;  232.02;-8.7986e-002
1201.52;  232.2;-8.8119e-002
1202.39;  232.38;-8.8264e-002
1203.3;  232.56;-8.8414e-002
1204.21;  232.74;-8.8581e-002
1205.1;  232.92;-8.8707e-002
1205.99;  233.1;-8.8871e-002
1206.89;  233.28;-8.9032e-002
1207.8;  233.46;-8.9168e-002
1208.72;  233.64;-8.9269e-002
1209.6;  233.82;-8.9443e-002
1210.51;  234;-8.9573e-002
1211.39;  234.18;-8.9713e-002
1212.3;  234.36;-8.9846e-002
1213.19;  234.54;-8.9963e-002
1214.08;  234.72;-9.0018e-002
1215;  234.9;-9.0252e-002
1215.88;  235.08;-9.0364e-002
1216.8;  235.26;-9.0436e-002
1217.7;  235.44;-9.0621e-002
1218.59;  235.62;-9.0746e-002
1219.48;  235.8;-9.0854e-002
1220.38;  235.98;-9.0941e-002
1221.3;  236.16;-9.1096e-002
1222.19;  236.34;-9.1206e-002
1223.09;  236.52;-9.1325e-002
1223.98;  236.7;-9.1421e-002
1224.89;  236.88;-9.1544e-002
1225.8;  237.06;-9.1627e-002
1226.68;  237.24;-9.1683e-002
1227.59;  237.42;-9.1869e-002
1228.49;  237.6;-9.1975e-002
1229.39;  237.78;-9.1995e-002
1230.3;  237.96;-9.2158e-002
1231.19;  238.14;-9.2269e-002
1232.09;  238.32;-9.2323e-002
1232.99;  238.5;-9.2443e-002
1233.88;  238.68;-9.2562e-002
1234.79;  238.86;-9.2627e-002
1235.68;  239.04;-9.2725e-002
1236.6;  239.22;-9.2742e-002
1237.49;  239.4;-9.2918e-002
1238.39;  239.58;-9.2992e-002
1239.27;  239.76;-9.3057e-002
1240.18;  239.94;-9.3168e-002
1241.09;  240.12;-9.3255e-002
1241.97;  240.3;-9.3334e-002
1242.89;  240.48;-9.3406e-002
1243.76;  240.66;-9.3488e-002
1244.68;  240.84;-9.3547e-002
1245.54;  241.02;-9.3623e-002
1246.46;  241.2;-9.3711e-002
1247.38;  241.38;-9.3753e-002
1248.25;  241.56;-9.3812e-002
1249.17;  241.74;-9.3912e-002
1250.08;  241.92;-9.3951e-002
1250.98;  242.1;-9.4017e-002
1251.88;  242.28;-9.4095e-002
1252.78;  242.46;-9.4160e-002
1253.69;  242.64;-9.4205e-002
1254.58;  242.82;-9.4229e-002
1255.47;  243;-9.4319e-002
1256.4;  243.18;-9.4342e-002
1257.27;  243.36;-9.4387e-002
1258.18;  243.54;-9.4447e-002
1259.07;  243.72;-9.4453e-002
1259.98;  243.9;-9.4544e-002
1260.9;  244.08;-9.4558e-002
1261.79;  244.26;-9.4539e-002
1262.7;  244.44;-9.4597e-002
1263.61;  244.62;-9.4673e-002
1264.5;  244.8;-9.4716e-002
1265.39;  244.98;-9.4737e-002
1266.3;  245.16;-9.4728e-002
1267.19;  245.34;-9.4806e-002
1268.1;  245.52;-9.4820e-002
1268.99;  245.7;-9.4810e-002
1269.9;  245.88;-9.4826e-002
1270.79;  246.06;-9.4821e-002
1271.69;  246.24;-9.4810e-002
1272.58;  246.42;-9.4817e-002
1273.49;  246.6;-9.4795e-002
1274.39;  246.78;-9.4793e-002
1275.27;  246.96;-9.4809e-002
1276.17;  247.14;-9.4793e-002
1277.09;  247.32;-9.4754e-002
1277.99;  247.5;-9.4772e-002
1278.88;  247.68;-9.4754e-002
1279.78;  247.86;-9.4761e-002
1280.69;  248.04;-9.4723e-002
1281.58;  248.22;-9.4716e-002
1282.48;  248.4;-9.4698e-002
1283.37;  248.58;-9.4649e-002
1284.28;  248.76;-9.4661e-002
1285.17;  248.94;-9.4639e-002
1286.08;  249.12;-9.4662e-002
1286.99;  249.3;-9.4651e-002
1287.88;  249.48;-9.4739e-002
1288.78;  249.66;-9.4755e-002
1289.69;  249.84;-9.4747e-002
1290.59;  250.02;-9.4750e-002
1291.49;  250.2;-9.4768e-002
1292.39;  250.38;-9.4771e-002
1293.3;  250.56;-9.4787e-002
1294.2;  250.74;-9.4787e-002
1295.08;  250.92;-9.4814e-002
1296;  251.1;-9.4766e-002
1296.89;  251.28;-9.4784e-002
1297.81;  251.46;-9.4762e-002
1298.68;  251.64;-9.4836e-002
1299.6;  251.82;-9.4868e-002
1300.51;  252;-9.4916e-002
1301.4;  252.18;-9.4942e-002
1302.3;  252.36;-9.4998e-002
1303.19;  252.54;-9.4982e-002
1304.1;  252.72;-9.5022e-002
1305.01;  252.9;-9.5051e-002
1305.89;  253.08;-9.5062e-002
1306.79;  253.26;-9.5067e-002
1307.69;  253.44;-9.5119e-002
1308.6;  253.62;-9.5116e-002
1309.5;  253.8;-9.5107e-002
1310.4;  253.98;-9.5093e-002
1311.3;  254.16;-9.5088e-002
1312.2;  254.34;-9.5100e-002
1313.11;  254.52;-9.5114e-002
1314;  254.7;-9.5075e-002
1314.91;  254.88;-9.5096e-002
1315.78;  255.06;-9.5041e-002
1316.68;  255.24;-9.5101e-002
1317.6;  255.42;-9.5108e-002
1318.5;  255.6;-9.5150e-002
1319.4;  255.78;-9.5110e-002
1320.28;  255.96;-9.5162e-002
1321.19;  256.14;-9.5188e-002
1322.09;  256.32;-9.5196e-002
1322.99;  256.5;-9.5112e-002
1323.89;  256.68;-9.5077e-002
1324.79;  256.86;-9.5027e-002
1325.69;  257.04;-9.4926e-002
1326.59;  257.22;-9.4799e-002
1327.49;  257.4;-9.4823e-002
1328.38;  257.58;-9.4997e-002
1329.29;  257.76;-9.5027e-002
1330.19;  257.94;-9.5003e-002
1331.08;  258.12;-9.4881e-002
1331.99;  258.3;-9.4826e-002
1332.89;  258.48;-9.4804e-002
1333.79;  258.66;-9.4905e-002
1334.7;  258.84;-9.4765e-002
1335.59;  259.02;-9.4950e-002
1336.5;  259.2;-9.5289e-002
1337.41;  259.38;-9.5419e-002
1338.29;  259.56;-9.5475e-002
1339.21;  259.74;-9.5388e-002
1340.1;  259.92;-9.5201e-002
1340.99;  260.1;-9.5672e-002
1341.88;  260.28;-9.5770e-002
1342.78;  260.46;-9.5708e-002
1343.68;  260.64;-9.5561e-002
1344.58;  260.82;-9.6056e-002
1345.48;  261;-9.6257e-002
1346.38;  261.18;-9.6239e-002
1347.3;  261.36;-9.6142e-002
1348.2;  261.54;-9.6258e-002
1349.1;  261.72;-9.6440e-002
1349.99;  261.9;-9.6394e-002
1350.45;  261.99;-9.6625e-002