File: 000398_K06_2_1350_Air-static.txt
#FILE:                 ;000398_K06_2_1350_Air-static.sle
#FORMAT:               ;NETZSCH5
#IDENTITY:             ;000398
#DECIMAL:              ;POINT
#SEPARATOR:            ;SEMICOLON
#MTYPE:                ;DIL
#MSUBTYPE:             ;
#INSTRUMENT:           ;NETZSCH DIL 402 C
#PROJECT:              ;
#DATE/TIME:            ;24.06.2021 19:46:38
#CORR. FILE:           ;
#LABORATORY:           ;НМ
#OPERATOR:             ;Орлов Н.
#REMARK:               ;
#SAMPLE:               ;K06_2
#SAMPLE LENGTH /mm:    ;2.780
#MATERIAL:             ;стандартный образец
#MEASMODE:             ;Standard Expansion
#PURGE GAS 1:          ;
#FLOW RATE 1 /(ml/min):;0
#CORR. CODE:           ;000
#RANGE:                ;40.0/2.0(K/мин)/1350.0
#SEGMENT:              ;S1/1

##Temp./°C;Time/min;dL/Lo
  41.17500;0.0000e+000; 0.0000e+000
  41.17500;    0.43917; 3.5971e-006
  41.27200;    0.87833; 4.4964e-006
  41.51200;    1.31750; 2.2482e-006
  41.80200;    1.75667;-4.4964e-006
  42.12700;    2.19583;-9.8921e-006
  42.50400;    2.63500;-2.3381e-005
  42.94400;    3.07417;-3.4173e-005
  43.46500;    3.51333;-5.0360e-005
  44.02900;    3.95250;-7.1043e-005
  44.64100;    4.39167;-9.0378e-005
  45.33200;    4.83083;-1.1466e-004
  46.04800;    5.27000;-1.3804e-004
  46.82700;    5.70917;-1.6412e-004
  47.65500;    6.14833;-1.9200e-004
  48.53000;    6.58750;-2.1897e-004
  49.45100;    7.02667;-2.4820e-004
  50.39500;    7.46583;-2.7608e-004
  51.38300;    7.90500;-3.0531e-004
  52.38800;    8.34417;-3.3318e-004
  53.42100;    8.78333;-3.6016e-004
  54.47400;    9.22250;-3.8804e-004
  55.56800;    9.66167;-4.1322e-004
  56.65800;   10.10083;-4.3885e-004
  57.75800;   10.54000;-4.6088e-004
  58.88000;   10.97917;-4.8246e-004
  59.99400;   11.41833;-5.0090e-004
  61.11300;   11.85750;-5.1844e-004
  62.23900;   12.29667;-5.3552e-004
  63.36100;   12.73583;-5.5216e-004
  64.47700;   13.17500;-5.6205e-004
  65.58700;   13.61417;-5.7419e-004
  66.69300;   14.05333;-5.8139e-004
  67.78800;   14.49250;-5.9038e-004
  68.87600;   14.93167;-5.9532e-004
  69.95300;   15.37083;-5.9577e-004
  71.02000;   15.81000;-5.9892e-004
  72.06900;   16.24917;-5.9937e-004
  73.11300;   16.68833;-5.9622e-004
  74.15300;   17.12750;-5.9308e-004
  75.15700;   17.56667;-5.8903e-004
  76.16100;   18.00583;-5.8273e-004
  77.15900;   18.44500;-5.7419e-004
  78.14200;   18.88417;-5.6520e-004
  79.11200;   19.32333;-5.5665e-004
  80.06000;   19.76250;-5.4541e-004
  81.00400;   20.20167;-5.3237e-004
  81.93300;   20.64083;-5.1844e-004
  82.84700;   21.08000;-5.0630e-004
  83.76500;   21.51917;-4.9191e-004
  84.66500;   21.95833;-4.7347e-004
  85.57000;   22.39750;-4.5953e-004
  86.44400;   22.83667;-4.4335e-004
  87.31800;   23.27583;-4.2716e-004
  88.20300;   23.71500;-4.1187e-004
  89.06200;   24.15417;-3.9344e-004
  89.92600;   24.59333;-3.7635e-004
  90.78900;   25.03250;-3.6016e-004
  91.63300;   25.47167;-3.4263e-004
  92.49500;   25.91083;-3.2644e-004
  93.33600;   26.35000;-3.0980e-004
  94.17800;   26.78917;-2.9317e-004
  95.02400;   27.22833;-2.8147e-004
  95.86900;   27.66750;-2.6034e-004
  96.71200;   28.10667;-2.4595e-004
  97.55500;   28.54583;-2.2887e-004
  98.39600;   28.98500;-2.1268e-004
  99.24900;   29.42417;-1.9784e-004
 100.091;   29.86333;-1.8480e-004
 100.937;   30.30250;-1.6772e-004
 101.792;   30.74167;-1.5333e-004
 102.639;   31.18083;-1.3939e-004
 103.501;   31.62000;-1.2545e-004
 104.348;   32.05917;-1.1016e-004
 105.216;   32.49833;-9.7572e-005
 106.085;   32.93750;-8.4982e-005
 106.942;   33.37667;-7.1493e-005
 107.819;   33.81583;-5.7554e-005
 108.679;   34.25500;-4.2716e-005
 109.551;   34.69417;-3.1475e-005
 110.419;   35.13334;-1.7086e-005
 111.302;   35.57250;-3.1475e-006
 112.181;   36.01167; 8.9928e-006
 113.066;   36.45083; 2.0683e-005
 113.941;   36.89000; 3.7770e-005
 114.814;   37.32917; 4.9460e-005
 115.712;   37.76833; 6.1601e-005
 116.584;   38.20750; 7.5090e-005
 117.475;   38.64667; 8.9029e-005
 118.355;   39.08583; 1.0072e-004
 119.238;   39.52500; 1.1601e-004
 120.136;   39.96417; 1.2860e-004
 121.027;   40.40333; 1.4299e-004
 121.919;   40.84250; 1.5423e-004
 122.809;   41.28167; 1.6817e-004
 123.696;   41.72083; 1.8345e-004
 124.584;   42.16000; 1.9380e-004
 125.479;   42.59917; 2.1133e-004
 126.371;   43.03833; 2.2302e-004
 127.259;   43.47750; 2.4011e-004
 128.137;   43.91667; 2.5180e-004
 129.035;   44.35583; 2.6574e-004
 129.919;   44.79500; 2.8417e-004
 130.801;   45.23417; 2.9676e-004
 131.7;   45.67333; 3.1160e-004
 132.581;   46.11250; 3.2599e-004
 133.472;   46.55167; 3.4128e-004
 134.36;   46.99083; 3.5746e-004
 135.233;   47.43000; 3.7140e-004
 136.117;   47.86917; 3.8714e-004
 136.998;   48.30833; 4.0288e-004
 137.881;   48.74750; 4.1682e-004
 138.766;   49.18667; 4.3031e-004
 139.656;   49.62583; 4.4559e-004
 140.525;   50.06500; 4.6133e-004
 141.413;   50.50417; 4.7482e-004
 142.286;   50.94333; 4.9191e-004
 143.172;   51.38250; 5.0674e-004
 144.062;   51.82167; 5.1709e-004
 144.925;   52.26083; 5.3417e-004
 145.813;   52.70000; 5.4946e-004
 146.684;   53.13917; 5.6115e-004
 147.567;   53.57833; 5.7689e-004
 148.444;   54.01750; 5.8858e-004
 149.324;   54.45667; 6.0432e-004
 150.207;   54.89583; 6.1781e-004
 151.096;   55.33500; 6.3130e-004
 151.969;   55.77417; 6.4389e-004
 152.855;   56.21333; 6.5468e-004
 153.722;   56.65250; 6.6817e-004
 154.597;   57.09167; 6.7986e-004
 155.481;   57.53083; 6.9200e-004
 156.369;   57.97000; 7.0369e-004
 157.241;   58.40917; 7.1493e-004
 158.117;   58.84833; 7.2662e-004
 159.008;   59.28750; 7.3966e-004
 159.878;   59.72667; 7.5135e-004
 160.764;   60.16583; 7.6259e-004
 161.642;   60.60500; 7.7248e-004
 162.527;   61.04417; 7.8417e-004
 163.405;   61.48333; 7.9451e-004
 164.286;   61.92250; 8.0710e-004
 165.167;   62.36167; 8.1790e-004
 166.054;   62.80083; 8.2689e-004
 166.924;   63.24000; 8.4128e-004
 167.817;   63.67916; 8.5342e-004
 168.699;   64.11833; 8.6556e-004
 169.582;   64.55750; 8.7455e-004
 170.468;   64.99667; 8.8624e-004
 171.352;   65.43584; 9.0378e-004
 172.236;   65.87500; 9.1592e-004
 173.119;   66.31416; 9.2761e-004
 173.998;   66.75333; 9.4155e-004
 174.885;   67.19250; 9.5414e-004
 175.754;   67.63167; 9.6942e-004
 176.646;   68.07083; 9.8336e-004
 177.517;   68.51000; 9.9640e-004
 178.399;   68.94917; 1.0103e-003
 179.284;   69.38834; 1.0270e-003
 180.162;   69.82750; 1.0409e-003
 181.045;   70.26667; 1.0549e-003
 181.922;   70.70583; 1.0715e-003
 182.8;   71.14500; 1.0859e-003
 183.678;   71.58417; 1.1003e-003
 184.557;   72.02333; 1.1174e-003
 185.44;   72.46250; 1.1290e-003
 186.317;   72.90166; 1.1457e-003
 187.195;   73.34084; 1.1632e-003
 188.08;   73.78000; 1.1763e-003
 188.966;   74.21917; 1.1906e-003
 189.847;   74.65833; 1.2091e-003
 190.724;   75.09750; 1.2221e-003
 191.607;   75.53667; 1.2361e-003
 192.484;   75.97583; 1.2518e-003
 193.363;   76.41500; 1.2698e-003
 194.244;   76.85416; 1.2833e-003
 195.128;   77.29333; 1.3008e-003
 195.988;   77.73250; 1.3170e-003
 196.877;   78.17167; 1.3323e-003
 197.761;   78.61083; 1.3467e-003
 198.634;   79.05000; 1.3624e-003
 199.517;   79.48917; 1.3763e-003
 200.391;   79.92834; 1.3952e-003
 201.274;   80.36750; 1.4087e-003
 202.153;   80.80666; 1.4254e-003
 203.031;   81.24583; 1.4406e-003
 203.916;   81.68500; 1.4568e-003
 204.799;   82.12417; 1.4694e-003
 205.67;   82.56333; 1.4852e-003
 206.549;   83.00250; 1.5013e-003
 207.437;   83.44167; 1.5189e-003
 208.314;   83.88084; 1.5310e-003
 209.201;   84.32000; 1.5445e-003
 210.071;   84.75916; 1.5616e-003
 210.953;   85.19833; 1.5755e-003
 211.837;   85.63750; 1.5881e-003
 212.721;   86.07667; 1.6052e-003
 213.605;   86.51583; 1.6228e-003
 214.48;   86.95500; 1.6367e-003
 215.37;   87.39417; 1.6520e-003
 216.251;   87.83334; 1.6655e-003
 217.124;   88.27250; 1.6853e-003
 218.013;   88.71167; 1.7005e-003
 218.894;   89.15083; 1.7140e-003
 219.772;   89.59000; 1.7289e-003
 220.658;   90.02917; 1.7455e-003
 221.533;   90.46833; 1.7594e-003
 222.415;   90.90750; 1.7734e-003
 223.309;   91.34666; 1.7828e-003
 224.181;   91.78584; 1.7972e-003
 225.068;   92.22500; 1.8116e-003
 225.939;   92.66417; 1.8251e-003
 226.824;   93.10333; 1.8377e-003
 227.709;   93.54250; 1.8530e-003
 228.592;   93.98167; 1.8656e-003
 229.475;   94.42083; 1.8799e-003
 230.362;   94.86000; 1.8907e-003
 231.234;   95.29916; 1.9051e-003
 232.119;   95.73833; 1.9141e-003
 233.004;   96.17750; 1.9321e-003
 233.882;   96.61667; 1.9442e-003
 234.771;   97.05583; 1.9586e-003
 235.646;   97.49500; 1.9721e-003
 236.514;   97.93417; 1.9838e-003
 237.398;   98.37334; 2.0009e-003
 238.282;   98.81250; 2.0117e-003
 239.161;   99.25166; 2.0279e-003
 240.033;   99.69083; 2.0418e-003
 240.914;  100.13; 2.0580e-003
 241.793;  100.569; 2.0697e-003
 242.677;  101.008; 2.0841e-003
 243.548;  101.448; 2.1003e-003
 244.432;  101.887; 2.1147e-003
 245.306;  102.326; 2.1290e-003
 246.173;  102.765; 2.1439e-003
 247.041;  103.204; 2.1592e-003
 247.916;  103.643; 2.1754e-003
 248.786;  104.082; 2.1902e-003
 249.654;  104.522; 2.2050e-003
 250.521;  104.961; 2.2185e-003
 251.381;  105.4; 2.2325e-003
 252.237;  105.839; 2.2491e-003
 253.106;  106.278; 2.2648e-003
 253.972;  106.718; 2.2792e-003
 254.832;  107.157; 2.2959e-003
 255.696;  107.596; 2.3107e-003
 256.568;  108.035; 2.3264e-003
 257.432;  108.474; 2.3381e-003
 258.308;  108.913; 2.3570e-003
 259.17;  109.353; 2.3701e-003
 260.044;  109.792; 2.3813e-003
 260.918;  110.231; 2.3997e-003
 261.791;  110.67; 2.4159e-003
 262.669;  111.109; 2.4294e-003
 263.555;  111.548; 2.4465e-003
 264.428;  111.987; 2.4649e-003
 265.316;  112.427; 2.4762e-003
 266.196;  112.866; 2.4928e-003
 267.08;  113.305; 2.5121e-003
 267.961;  113.744; 2.5270e-003
 268.84;  114.183; 2.5432e-003
 269.724;  114.623; 2.5634e-003
 270.606;  115.062; 2.5791e-003
 271.497;  115.501; 2.5935e-003
 272.374;  115.94; 2.6133e-003
 273.272;  116.379; 2.6268e-003
 274.165;  116.818; 2.6488e-003
 275.055;  117.257; 2.6632e-003
 275.947;  117.697; 2.6794e-003
 276.836;  118.136; 2.6992e-003
 277.723;  118.575; 2.7149e-003
 278.615;  119.014; 2.7347e-003
 279.507;  119.453; 2.7522e-003
 280.385;  119.892; 2.7707e-003
 281.274;  120.332; 2.7882e-003
 282.165;  120.771; 2.8058e-003
 283.047;  121.21; 2.8242e-003
 283.929;  121.649; 2.8435e-003
 284.818;  122.088; 2.8579e-003
 285.697;  122.528; 2.8808e-003
 286.579;  122.967; 2.8979e-003
 287.456;  123.406; 2.9137e-003
 288.33;  123.845; 2.9330e-003
 289.21;  124.284; 2.9519e-003
 290.092;  124.723; 2.9703e-003
 290.966;  125.162; 2.9861e-003
 291.847;  125.602; 3.0058e-003
 292.727;  126.041; 3.0220e-003
 293.599;  126.48; 3.0400e-003
 294.48;  126.919; 3.0607e-003
 295.354;  127.358; 3.0782e-003
 296.228;  127.797; 3.0908e-003
 297.119;  128.237; 3.1138e-003
 297.99;  128.676; 3.1304e-003
 298.871;  129.115; 3.1497e-003
 299.744;  129.554; 3.1637e-003
 300.63;  129.993; 3.1857e-003
 301.505;  130.433; 3.2032e-003
 302.387;  130.872; 3.2226e-003
 303.267;  131.311; 3.2383e-003
 304.141;  131.75; 3.2536e-003
 305.018;  132.189; 3.2761e-003
 305.891;  132.628; 3.2950e-003
 306.773;  133.067; 3.3112e-003
 307.653;  133.507; 3.3309e-003
 308.53;  133.946; 3.3476e-003
 309.405;  134.385; 3.3579e-003
 310.288;  134.824; 3.3853e-003
 311.165;  135.263; 3.3997e-003
 312.044;  135.702; 3.4195e-003
 312.925;  136.142; 3.4366e-003
 313.802;  136.581; 3.4546e-003
 314.676;  137.02; 3.4730e-003
 315.565;  137.459; 3.4888e-003
 316.437;  137.898; 3.5090e-003
 317.321;  138.337; 3.5220e-003
 318.196;  138.777; 3.5450e-003
 319.08;  139.216; 3.5589e-003
 319.957;  139.655; 3.5818e-003
 320.838;  140.094; 3.5994e-003
 321.709;  140.533; 3.6187e-003
 322.587;  140.972; 3.6362e-003
 323.473;  141.412; 3.6515e-003
 324.339;  141.851; 3.6709e-003
 325.223;  142.29; 3.6866e-003
 326.114;  142.729; 3.7091e-003
 326.981;  143.168; 3.7253e-003
 327.858;  143.607; 3.7419e-003
 328.736;  144.047; 3.7639e-003
 329.623;  144.486; 3.7806e-003
 330.497;  144.925; 3.7995e-003
 331.374;  145.364; 3.8192e-003
 332.253;  145.803; 3.8345e-003
 333.133;  146.242; 3.8557e-003
 334.002;  146.682; 3.8687e-003
 334.885;  147.121; 3.8876e-003
 335.768;  147.56; 3.9069e-003
 336.646;  147.999; 3.9272e-003
 337.534;  148.438; 3.9406e-003
 338.399;  148.877; 3.9591e-003
 339.285;  149.317; 3.9775e-003
 340.162;  149.756; 3.9987e-003
 341.039;  150.195; 4.0130e-003
 341.913;  150.634; 4.0351e-003
 342.802;  151.073; 4.0522e-003
 343.682;  151.512; 4.0679e-003
 344.56;  151.952; 4.0841e-003
 345.434;  152.391; 4.1039e-003
 346.307;  152.83; 4.1183e-003
 347.187;  153.269; 4.1376e-003
 348.073;  153.708; 4.1547e-003
 348.954;  154.148; 4.1749e-003
 349.824;  154.587; 4.1906e-003
 350.713;  155.026; 4.2073e-003
 351.587;  155.465; 4.2262e-003
 352.457;  155.904; 4.2424e-003
 353.34;  156.343; 4.2554e-003
 354.218;  156.782; 4.2756e-003
 355.094;  157.222; 4.2914e-003
 355.974;  157.661; 4.3125e-003
 356.852;  158.1; 4.3255e-003
 357.739;  158.539; 4.3386e-003
 358.614;  158.978; 4.3579e-003
 359.497;  159.417; 4.3786e-003
 360.371;  159.857; 4.3939e-003
 361.251;  160.296; 4.4137e-003
 362.125;  160.735; 4.4299e-003
 363.012;  161.174; 4.4492e-003
 363.894;  161.613; 4.4640e-003
 364.766;  162.053; 4.4780e-003
 365.641;  162.492; 4.4982e-003
 366.526;  162.931; 4.5148e-003
 367.404;  163.37; 4.5315e-003
 368.281;  163.809; 4.5463e-003
 369.161;  164.248; 4.5661e-003
 370.033;  164.688; 4.5841e-003
 370.914;  165.127; 4.6003e-003
 371.797;  165.566; 4.6178e-003
 372.666;  166.005; 4.6349e-003
 373.546;  166.444; 4.6497e-003
 374.428;  166.883; 4.6655e-003
 375.31;  167.322; 4.6817e-003
 376.189;  167.762; 4.7032e-003
 377.067;  168.201; 4.7181e-003
 377.936;  168.64; 4.7383e-003
 378.823;  169.079; 4.7563e-003
 379.707;  169.518; 4.7738e-003
 380.581;  169.958; 4.7828e-003
 381.459;  170.397; 4.8103e-003
 382.344;  170.836; 4.8179e-003
 383.215;  171.275; 4.8390e-003
 384.089;  171.714; 4.8566e-003
 384.979;  172.153; 4.8773e-003
 385.853;  172.593; 4.8939e-003
 386.735;  173.032; 4.9128e-003
 387.615;  173.471; 4.9276e-003
 388.491;  173.91; 4.9451e-003
 389.37;  174.349; 4.9658e-003
 390.252;  174.788; 4.9843e-003
 391.13;  175.227; 5.0023e-003
 392.014;  175.667; 5.0121e-003
 392.891;  176.106; 5.0319e-003
 393.763;  176.545; 5.0567e-003
 394.637;  176.984; 5.0746e-003
 395.515;  177.423; 5.0895e-003
 396.402;  177.863; 5.1084e-003
 397.271;  178.302; 5.1255e-003
 398.154;  178.741; 5.1443e-003
 399.03;  179.18; 5.1610e-003
 399.913;  179.619; 5.1740e-003
 400.793;  180.058; 5.1983e-003
 401.672;  180.498; 5.2136e-003
 402.548;  180.937; 5.2320e-003
 403.436;  181.376; 5.2523e-003
 404.31;  181.815; 5.2689e-003
 405.193;  182.254; 5.2891e-003
 406.072;  182.693; 5.3044e-003
 406.95;  183.133; 5.3251e-003
 407.825;  183.572; 5.3426e-003
 408.698;  184.011; 5.3611e-003
 409.584;  184.45; 5.3808e-003
 410.462;  184.889; 5.3912e-003
 411.336;  185.328; 5.4128e-003
 412.217;  185.768; 5.4344e-003
 413.094;  186.207; 5.4478e-003
 413.971;  186.646; 5.4712e-003
 414.851;  187.085; 5.4888e-003
 415.727;  187.524; 5.5072e-003
 416.606;  187.963; 5.5238e-003
 417.486;  188.403; 5.5396e-003
 418.371;  188.842; 5.5634e-003
 419.248;  189.281; 5.5805e-003
 420.118;  189.72; 5.5985e-003
 421.004;  190.159; 5.6124e-003
 421.871;  190.598; 5.6308e-003
 422.751;  191.038; 5.6470e-003
 423.633;  191.477; 5.6722e-003
 424.509;  191.916; 5.6920e-003
 425.391;  192.355; 5.7077e-003
 426.264;  192.794; 5.7275e-003
 427.148;  193.233; 5.7451e-003
 428.021;  193.673; 5.7608e-003
 428.9;  194.112; 5.7779e-003
 429.779;  194.551; 5.8004e-003
 430.664;  194.99; 5.8148e-003
 431.532;  195.429; 5.8350e-003
 432.416;  195.868; 5.8530e-003
 433.291;  196.308; 5.8732e-003
 434.17;  196.747; 5.8894e-003
 435.047;  197.186; 5.9078e-003
 435.931;  197.625; 5.9308e-003
 436.809;  198.064; 5.9451e-003
 437.69;  198.503; 5.9663e-003
 438.567;  198.942; 5.9834e-003
 439.443;  199.382; 6.0000e-003
 440.32;  199.821; 6.0198e-003
 441.203;  200.26; 6.0391e-003
 442.081;  200.699; 6.0576e-003
 442.956;  201.138; 6.0724e-003
 443.839;  201.577; 6.0926e-003
 444.717;  202.017; 6.1165e-003
 445.603;  202.456; 6.1331e-003
 446.47;  202.895; 6.1479e-003
 447.352;  203.334; 6.1700e-003
 448.228;  203.773; 6.1884e-003
 449.11;  204.212; 6.2086e-003
 449.991;  204.652; 6.2266e-003
 450.869;  205.091; 6.2451e-003
 451.736;  205.53; 6.2630e-003
 452.622;  205.969; 6.2810e-003
 453.5;  206.408; 6.3026e-003
 454.37;  206.847; 6.3237e-003
 455.258;  207.287; 6.3413e-003
 456.141;  207.726; 6.3584e-003
 457.008;  208.165; 6.3759e-003
 457.894;  208.604; 6.3970e-003
 458.775;  209.043; 6.4186e-003
 459.645;  209.482; 6.4353e-003
 460.532;  209.922; 6.4532e-003
 461.405;  210.361; 6.4735e-003
 462.288;  210.8; 6.4870e-003
 463.159;  211.239; 6.5112e-003
 464.046;  211.678; 6.5319e-003
 464.92;  212.117; 6.5504e-003
 465.8;  212.557; 6.5683e-003
 466.671;  212.996; 6.5823e-003
 467.552;  213.435; 6.6075e-003
 468.432;  213.874; 6.6250e-003
 469.313;  214.313; 6.6398e-003
 470.189;  214.752; 6.6587e-003
 471.071;  215.192; 6.6808e-003
 471.938;  215.631; 6.6992e-003
 472.827;  216.07; 6.7208e-003
 473.692;  216.509; 6.7392e-003
 474.575;  216.948; 6.7563e-003
 475.46;  217.387; 6.7689e-003
 476.33;  217.827; 6.7959e-003
 477.214;  218.266; 6.8130e-003
 478.089;  218.705; 6.8345e-003
 478.964;  219.144; 6.8548e-003
 479.855;  219.583; 6.8705e-003
 480.726;  220.023; 6.8921e-003
 481.607;  220.462; 6.9078e-003
 482.479;  220.901; 6.9258e-003
 483.363;  221.34; 6.9460e-003
 484.234;  221.779; 6.9649e-003
 485.119;  222.218; 6.9811e-003
 486.003;  222.657; 6.9969e-003
 486.875;  223.097; 7.0229e-003
 487.754;  223.536; 7.0400e-003
 488.625;  223.975; 7.0580e-003
 489.512;  224.414; 7.0778e-003
 490.384;  224.853; 7.0976e-003
 491.261;  225.292; 7.1165e-003
 492.149;  225.732; 7.1367e-003
 493.023;  226.171; 7.1511e-003
 493.896;  226.61; 7.1713e-003
 494.784;  227.049; 7.1898e-003
 495.655;  227.488; 7.2122e-003
 496.537;  227.928; 7.2230e-003
 497.409;  228.367; 7.2496e-003
 498.307;  228.806; 7.2707e-003
 499.181;  229.245; 7.2864e-003
 500.055;  229.684; 7.3004e-003
 500.923;  230.123; 7.3210e-003
 501.813;  230.562; 7.3449e-003
 502.69;  231.002; 7.3597e-003
 503.569;  231.441; 7.3777e-003
 504.443;  231.88; 7.3984e-003
 505.331;  232.319; 7.4119e-003
 506.201;  232.758; 7.4348e-003
 507.082;  233.197; 7.4550e-003
 507.963;  233.637; 7.4699e-003
 508.847;  234.076; 7.4865e-003
 509.726;  234.515; 7.5009e-003
 510.596;  234.954; 7.5252e-003
 511.465;  235.393; 7.5459e-003
 512.348;  235.833; 7.5648e-003
 513.225;  236.272; 7.5836e-003
 514.098;  236.711; 7.6039e-003
 514.985;  237.15; 7.6129e-003
 515.858;  237.589; 7.6385e-003
 516.742;  238.028; 7.6592e-003
 517.62;  238.468; 7.6754e-003
 518.495;  238.907; 7.6951e-003
 519.385;  239.346; 7.7140e-003
 520.257;  239.785; 7.7280e-003
 521.133;  240.224; 7.7514e-003
 522.014;  240.663; 7.7684e-003
 522.898;  241.102; 7.7896e-003
 523.765;  241.542; 7.7954e-003
 524.648;  241.981; 7.8224e-003
 525.522;  242.42; 7.8354e-003
 526.397;  242.859; 7.8624e-003
 527.285;  243.298; 7.8777e-003
 528.159;  243.738; 7.8966e-003
 529.034;  244.177; 7.9092e-003
 529.919;  244.616; 7.9317e-003
 530.794;  245.055; 7.9487e-003
 531.677;  245.494; 7.9685e-003
 532.548;  245.933; 7.9879e-003
 533.433;  246.373; 8.0050e-003
 534.307;  246.812; 8.0184e-003
 535.185;  247.251; 8.0342e-003
 536.059;  247.69; 8.0607e-003
 536.944;  248.129; 8.0773e-003
 537.824;  248.568; 8.0962e-003
 538.707;  249.008; 8.1138e-003
 539.575;  249.447; 8.1282e-003
 540.455;  249.886; 8.1430e-003
 541.339;  250.325; 8.1686e-003
 542.217;  250.764; 8.1835e-003
 543.093;  251.203; 8.2019e-003
 543.971;  251.643; 8.2199e-003
 544.845;  252.082; 8.2415e-003
 545.725;  252.521; 8.2505e-003
 546.601;  252.96; 8.2774e-003
 547.481;  253.399; 8.2941e-003
 548.358;  253.838; 8.3098e-003
 549.242;  254.278; 8.3273e-003
 550.116;  254.717; 8.3458e-003
 551.004;  255.156; 8.3620e-003
 551.868;  255.595; 8.3791e-003
 552.75;  256.034; 8.3957e-003
 553.631;  256.473; 8.4141e-003
 554.508;  256.913; 8.4281e-003
 555.384;  257.352; 8.4438e-003
 556.273;  257.791; 8.4649e-003
 557.143;  258.23; 8.4807e-003
 558.021;  258.669; 8.4978e-003
 558.905;  259.108; 8.5144e-003
 559.787;  259.547; 8.5207e-003
 560.684;  259.987; 8.5450e-003
 561.535;  260.426; 8.5616e-003
 562.415;  260.865; 8.5814e-003
 563.301;  261.304; 8.5953e-003
 564.17;  261.743; 8.6084e-003
 565.049;  262.183; 8.6286e-003
 565.923;  262.622; 8.6443e-003
 566.807;  263.061; 8.6574e-003
 567.692;  263.5; 8.6799e-003
 568.56;  263.939; 8.6960e-003
 569.44;  264.378; 8.7118e-003
 570.32;  264.817; 8.7248e-003
 571.195;  265.257; 8.7401e-003
 572.066;  265.696; 8.7617e-003
 572.948;  266.135; 8.7729e-003
 573.824;  266.574; 8.7923e-003
 574.708;  267.013; 8.8058e-003
 575.581;  267.453; 8.8237e-003
 576.47;  267.892; 8.8395e-003
 577.345;  268.331; 8.8467e-003
 578.227;  268.77; 8.8696e-003
 579.104;  269.209; 8.8835e-003
 579.975;  269.648; 8.9002e-003
 580.858;  270.087; 8.9119e-003
 581.734;  270.527; 8.9348e-003
 582.604;  270.966; 8.9465e-003
 583.487;  271.405; 8.9613e-003
 584.376;  271.844; 8.9766e-003
 585.248;  272.283; 8.9942e-003
 586.125;  272.723; 9.0027e-003
 587.009;  273.162; 9.0216e-003
 587.878;  273.601; 9.0382e-003
 588.762;  274.04; 9.0513e-003
 589.641;  274.479; 9.0612e-003
 590.524;  274.918; 9.0805e-003
 591.402;  275.358; 9.0908e-003
 592.276;  275.797; 9.1075e-003
 593.156;  276.236; 9.1237e-003
 594.021;  276.675; 9.1349e-003
 594.902;  277.114; 9.1506e-003
 595.786;  277.553; 9.1587e-003
 596.67;  277.992; 9.1799e-003
 597.543;  278.432; 9.1956e-003
 598.43;  278.871; 9.2028e-003
 599.298;  279.31; 9.2217e-003
 600.181;  279.749; 9.2329e-003
 601.054;  280.188; 9.2478e-003
 601.933;  280.627; 9.2541e-003
 602.81;  281.067; 9.2770e-003
 603.683;  281.506; 9.2878e-003
 604.563;  281.945; 9.3035e-003
 605.442;  282.384; 9.3112e-003
 606.312;  282.823; 9.3269e-003
 607.205;  283.263; 9.3390e-003
 608.076;  283.702; 9.3503e-003
 608.955;  284.141; 9.3669e-003
 609.834;  284.58; 9.3678e-003
 610.702;  285.019; 9.3817e-003
 611.59;  285.458; 9.4011e-003
 612.469;  285.897; 9.4146e-003
 613.341;  286.337; 9.4101e-003
 614.224;  286.776; 9.4366e-003
 615.093;  287.215; 9.4438e-003
 615.978;  287.654; 9.4573e-003
 616.856;  288.093; 9.4658e-003
 617.727;  288.533; 9.4807e-003
 618.606;  288.972; 9.4897e-003
 619.494;  289.411; 9.5045e-003
 620.37;  289.85; 9.5153e-003
 621.245;  290.289; 9.5283e-003
 622.117;  290.728; 9.5319e-003
 623.006;  291.168; 9.5481e-003
 623.882;  291.607; 9.5580e-003
 624.752;  292.046; 9.5684e-003
 625.636;  292.485; 9.5787e-003
 626.522;  292.924; 9.5877e-003
 627.393;  293.363; 9.6030e-003
 628.275;  293.802; 9.6057e-003
 629.144;  294.242; 9.6196e-003
 630.021;  294.681; 9.6196e-003
 630.903;  295.12; 9.6389e-003
 631.779;  295.559; 9.6452e-003
 632.665;  295.998; 9.6569e-003
 633.532;  296.438; 9.6655e-003
 634.417;  296.877; 9.6722e-003
 635.298;  297.316; 9.6866e-003
 636.175;  297.755; 9.6951e-003
 637.055;  298.194; 9.6978e-003
 637.925;  298.633; 9.7109e-003
 638.807;  299.073; 9.7181e-003
 639.68;  299.512; 9.7293e-003
 640.561;  299.951; 9.7401e-003
 641.438;  300.39; 9.7460e-003
 642.319;  300.829; 9.7500e-003
 643.192;  301.268; 9.7563e-003
 644.077;  301.707; 9.7630e-003
 644.966;  302.147; 9.7725e-003
 645.83;  302.586; 9.7779e-003
 646.704;  303.025; 9.7833e-003
 647.579;  303.464; 9.7896e-003
 648.461;  303.903; 9.7887e-003
 649.339;  304.342; 9.8067e-003
 650.219;  304.782; 9.8148e-003
 651.105;  305.221; 9.8228e-003
 651.97;  305.66; 9.8341e-003
 652.86;  306.099; 9.8386e-003
 653.741;  306.538; 9.8512e-003
 654.617;  306.978; 9.8624e-003
 655.5;  307.417; 9.8737e-003
 656.373;  307.856; 9.8795e-003
 657.25;  308.295; 9.8916e-003
 658.122;  308.734; 9.8894e-003
 659.003;  309.173; 9.8939e-003
 659.881;  309.612; 9.9078e-003
 660.756;  310.052; 9.9218e-003
 661.628;  310.491; 9.9222e-003
 662.517;  310.93; 9.9312e-003
 663.393;  311.369; 9.9375e-003
 664.271;  311.808; 9.9492e-003
 665.148;  312.248; 9.9501e-003
 666.03;  312.687; 9.9528e-003
 666.906;  313.126; 9.9699e-003
 667.779;  313.565; 9.9694e-003
 668.66;  314.004; 9.9816e-003
 669.545;  314.443; 9.9897e-003
 670.411;  314.883; 9.9960e-003
 671.292;  315.322; 9.9996e-003
 672.186;  315.761; 1.0005e-002
 673.045;  316.2; 1.0009e-002
 673.934;  316.639; 1.0011e-002
 674.801;  317.078; 1.0022e-002
 675.687;  317.517; 1.0024e-002
 676.557;  317.957; 1.0033e-002
 677.435;  318.396; 1.0028e-002
 678.322;  318.835; 1.0043e-002
 679.191;  319.274; 1.0045e-002
 680.071;  319.713; 1.0045e-002
 680.952;  320.152; 1.0051e-002
 681.828;  320.592; 1.0059e-002
 682.708;  321.031; 1.0059e-002
 683.59;  321.47; 1.0060e-002
 684.464;  321.909; 1.0064e-002
 685.334;  322.348; 1.0061e-002
 686.216;  322.788; 1.0074e-002
 687.101;  323.227; 1.0071e-002
 687.972;  323.666; 1.0071e-002
 688.855;  324.105; 1.0080e-002
 689.733;  324.544; 1.0081e-002
 690.604;  324.983; 1.0075e-002
 691.492;  325.422; 1.0084e-002
 692.372;  325.862; 1.0082e-002
 693.231;  326.301; 1.0081e-002
 694.128;  326.74; 1.0081e-002
 694.999;  327.179; 1.0085e-002
 695.876;  327.618; 1.0079e-002
 696.758;  328.058; 1.0084e-002
 697.638;  328.497; 1.0080e-002
 698.509;  328.936; 1.0078e-002
 699.389;  329.375; 1.0085e-002
 700.266;  329.814; 1.0085e-002
 701.152;  330.253; 1.0078e-002
 702.02;  330.692; 1.0080e-002
 702.904;  331.132; 1.0083e-002
 703.782;  331.571; 1.0075e-002
 704.657;  332.01; 1.0073e-002
 705.544;  332.449; 1.0071e-002
 706.414;  332.888; 1.0064e-002
 707.297;  333.328; 1.0065e-002
 708.168;  333.767; 1.0062e-002
 709.038;  334.206; 1.0061e-002
 709.925;  334.645; 1.0055e-002
 710.8;  335.084; 1.0051e-002
 711.681;  335.523; 1.0045e-002
 712.558;  335.962; 1.0045e-002
 713.434;  336.402; 1.0040e-002
 714.319;  336.841; 1.0037e-002
 715.19;  337.28; 1.0033e-002
 716.07;  337.719; 1.0024e-002
 716.955;  338.158; 1.0019e-002
 717.827;  338.598; 1.0009e-002
 718.706;  339.037; 1.0002e-002
 719.57;  339.476; 9.9960e-003
 720.456;  339.915; 9.9915e-003
 721.34;  340.354; 9.9816e-003
 722.21;  340.793; 9.9753e-003
 723.088;  341.233; 9.9667e-003
 723.97;  341.672; 9.9582e-003
 724.851;  342.111; 9.9402e-003
 725.727;  342.55; 9.9371e-003
 726.595;  342.989; 9.9227e-003
 727.476;  343.428; 9.9150e-003
 728.354;  343.867; 9.9011e-003
 729.229;  344.307; 9.8957e-003
 730.113;  344.746; 9.8826e-003
 730.988;  345.185; 9.8674e-003
 731.864;  345.624; 9.8579e-003
 732.749;  346.063; 9.8408e-003
 733.627;  346.502; 9.8273e-003
 734.513;  346.942; 9.8107e-003
 735.373;  347.381; 9.7950e-003
 736.266;  347.82; 9.7815e-003
 737.141;  348.259; 9.7743e-003
 738.015;  348.698; 9.7505e-003
 738.906;  349.138; 9.7329e-003
 739.769;  349.577; 9.7113e-003
 740.658;  350.016; 9.7064e-003
 741.519;  350.455; 9.6790e-003
 742.403;  350.894; 9.6655e-003
 743.285;  351.333; 9.6529e-003
 744.161;  351.772; 9.6300e-003
 745.045;  352.212; 9.6142e-003
 745.91;  352.651; 9.5926e-003
 746.802;  353.09; 9.5755e-003
 747.678;  353.529; 9.5562e-003
 748.547;  353.968; 9.5369e-003
 749.44;  354.408; 9.5081e-003
 750.317;  354.847; 9.4888e-003
 751.191;  355.286; 9.4663e-003
 752.071;  355.725; 9.4460e-003
 752.943;  356.164; 9.4164e-003
 753.825;  356.603; 9.4015e-003
 754.693;  357.043; 9.3719e-003
 755.577;  357.482; 9.3543e-003
 756.457;  357.921; 9.3166e-003
 757.32;  358.36; 9.2959e-003
 758.211;  358.799; 9.2716e-003
 759.084;  359.238; 9.2500e-003
 759.964;  359.677; 9.2149e-003
 760.846;  360.117; 9.1902e-003
 761.716;  360.556; 9.1641e-003
 762.598;  360.995; 9.1398e-003
 763.487;  361.434; 9.1102e-003
 764.35;  361.873; 9.0746e-003
 765.233;  362.312; 9.0499e-003
 766.103;  362.752; 9.0180e-003
 766.983;  363.191; 8.9901e-003
 767.856;  363.63; 8.9586e-003
 768.739;  364.069; 8.9204e-003
 769.628;  364.508; 8.8943e-003
 770.496;  364.948; 8.8620e-003
 771.369;  365.387; 8.8327e-003
 772.254;  365.826; 8.7945e-003
 773.13;  366.265; 8.7612e-003
 774.007;  366.704; 8.7271e-003
 774.888;  367.143; 8.6965e-003
 775.77;  367.582; 8.6596e-003
 776.635;  368.022; 8.6255e-003
 777.518;  368.461; 8.5881e-003
 778.408;  368.9; 8.5531e-003
 779.268;  369.339; 8.5148e-003
 780.161;  369.778; 8.4649e-003
 781.03;  370.217; 8.4398e-003
 781.912;  370.657; 8.3993e-003
 782.788;  371.096; 8.3593e-003
 783.657;  371.535; 8.3228e-003
 784.543;  371.974; 8.2779e-003
 785.422;  372.413; 8.2361e-003
 786.304;  372.853; 8.1983e-003
 787.189;  373.292; 8.1560e-003
 788.056;  373.731; 8.1120e-003
 788.941;  374.17; 8.0666e-003
 789.807;  374.609; 8.0211e-003
 790.693;  375.048; 7.9753e-003
 791.564;  375.487; 7.9348e-003
 792.437;  375.927; 7.8880e-003
 793.336;  376.366; 7.8390e-003
 794.208;  376.805; 7.7891e-003
 795.084;  377.244; 7.7469e-003
 795.963;  377.683; 7.6947e-003
 796.841;  378.123; 7.6448e-003
 797.727;  378.562; 7.6007e-003
 798.594;  379.001; 7.5454e-003
 799.474;  379.44; 7.4978e-003
 800.357;  379.879; 7.4451e-003
 801.23;  380.318; 7.3903e-003
 802.114;  380.758; 7.3300e-003
 802.981;  381.197; 7.2819e-003
 803.864;  381.636; 7.2194e-003
 804.734;  382.075; 7.1704e-003
 805.614;  382.514; 7.1111e-003
 806.497;  382.953; 7.0576e-003
 807.373;  383.392; 7.0018e-003
 808.252;  383.832; 6.9362e-003
 809.122;  384.271; 6.8791e-003
 810.011;  384.71; 6.8201e-003
 810.892;  385.149; 6.7545e-003
 811.763;  385.588; 6.6969e-003
 812.65;  386.027; 6.6313e-003
 813.515;  386.467; 6.5697e-003
 814.397;  386.906; 6.5054e-003
 815.281;  387.345; 6.4438e-003
 816.156;  387.784; 6.3723e-003
 817.041;  388.223; 6.3044e-003
 817.909;  388.663; 6.2410e-003
 818.79;  389.102; 6.1709e-003
 819.677;  389.541; 6.1007e-003
 820.556;  389.98; 6.0342e-003
 821.431;  390.419; 5.9564e-003
 822.299;  390.858; 5.8903e-003
 823.186;  391.297; 5.8103e-003
 824.061;  391.737; 5.7365e-003
 824.928;  392.176; 5.6587e-003
 825.824;  392.615; 5.5886e-003
 826.697;  393.054; 5.5139e-003
 827.579;  393.493; 5.4344e-003
 828.452;  393.933; 5.3534e-003
 829.329;  394.372; 5.2743e-003
 830.209;  394.811; 5.1956e-003
 831.089;  395.25; 5.1124e-003
 831.971;  395.689; 5.0283e-003
 832.842;  396.128; 4.9451e-003
 833.724;  396.567; 4.8647e-003
 834.604;  397.007; 4.7792e-003
 835.483;  397.446; 4.6889e-003
 836.359;  397.885; 4.6079e-003
 837.225;  398.324; 4.5189e-003
 838.118;  398.763; 4.4276e-003
 838.997;  399.203; 4.3332e-003
 839.87;  399.642; 4.2509e-003
 840.767;  400.081; 4.1524e-003
 841.618;  400.52; 4.0621e-003
 842.506;  400.959; 3.9694e-003
 843.378;  401.398; 3.8750e-003
 844.264;  401.837; 3.7779e-003
 845.151;  402.277; 3.6821e-003
 846.019;  402.716; 3.5836e-003
 846.902;  403.155; 3.4802e-003
 847.768;  403.594; 3.3817e-003
 848.655;  404.033; 3.2783e-003
 849.535;  404.473; 3.1767e-003
 850.411;  404.912; 3.0683e-003
 851.286;  405.351; 2.9699e-003
 852.163;  405.79; 2.8606e-003
 853.045;  406.229; 2.7527e-003
 853.921;  406.668; 2.6407e-003
 854.797;  407.108; 2.5342e-003
 855.675;  407.547; 2.4209e-003
 856.556;  407.986; 2.3085e-003
 857.44;  408.425; 2.1929e-003
 858.311;  408.864; 2.0805e-003
 859.184;  409.303; 1.9595e-003
 860.052;  409.742; 1.8453e-003
 860.941;  410.182; 1.7293e-003
 861.829;  410.621; 1.6084e-003
 862.699;  411.06; 1.4856e-003
 863.579;  411.499; 1.3593e-003
 864.45;  411.938; 1.2356e-003
 865.334;  412.377; 1.1138e-003
 866.213;  412.817; 9.9011e-004
 867.084;  413.256; 8.5971e-004
 867.97;  413.695; 7.3201e-004
 868.84;  414.134; 6.0387e-004
 869.726;  414.573; 4.6942e-004
 870.6;  415.013; 3.4173e-004
 871.479;  415.452; 2.0549e-004
 872.358;  415.891; 7.3741e-005
 873.225;  416.33;-6.4748e-005
 874.109;  416.769;-2.0234e-004
 874.988;  417.208;-3.3993e-004
 875.861;  417.647;-4.7932e-004
 876.744;  418.087;-6.2005e-004
 877.615;  418.526;-7.6079e-004
 878.501;  418.965;-9.0513e-004
 879.372;  419.404;-1.0490e-003
 880.257;  419.843;-1.1956e-003
 881.127;  420.283;-1.3444e-003
 882.006;  420.722;-1.4937e-003
 882.899;  421.161;-1.6425e-003
 883.762;  421.6;-1.7954e-003
 884.646;  422.039;-1.9478e-003
 885.516;  422.478;-2.1025e-003
 886.401;  422.918;-2.2576e-003
 887.283;  423.357;-2.4164e-003
 888.155;  423.796;-2.5715e-003
 889.044;  424.235;-2.7316e-003
 889.913;  424.674;-2.8939e-003
 890.804;  425.113;-3.0549e-003
 891.668;  425.552;-3.2172e-003
 892.545;  425.992;-3.3831e-003
 893.435;  426.431;-3.5486e-003
 894.298;  426.87;-3.7149e-003
 895.189;  427.309;-3.8835e-003
 896.056;  427.748;-4.0513e-003
 896.95;  428.188;-4.2230e-003
 897.817;  428.627;-4.3934e-003
 898.688;  429.066;-4.5670e-003
 899.573;  429.505;-4.7415e-003
 900.447;  429.944;-4.9168e-003
 901.331;  430.383;-5.0940e-003
 902.209;  430.823;-5.2729e-003
 903.092;  431.262;-5.4519e-003
 903.97;  431.701;-5.6326e-003
 904.841;  432.14;-5.8130e-003
 905.729;  432.579;-5.9951e-003
 906.596;  433.018;-6.1767e-003
 907.477;  433.457;-6.3624e-003
 908.351;  433.897;-6.5463e-003
 909.239;  434.336;-6.7334e-003
 910.121;  434.775;-6.9218e-003
 910.986;  435.214;-7.1093e-003
 911.873;  435.653;-7.2986e-003
 912.738;  436.092;-7.4906e-003
 913.619;  436.532;-7.6821e-003
 914.504;  436.971;-7.8741e-003
 915.389;  437.41;-8.0675e-003
 916.271;  437.849;-8.2621e-003
 917.138;  438.288;-8.4595e-003
 918.014;  438.728;-8.6551e-003
 918.891;  439.167;-8.8543e-003
 919.775;  439.606;-9.0522e-003
 920.64;  440.045;-9.2509e-003
 921.528;  440.484;-9.4564e-003
 922.41;  440.923;-9.6560e-003
 923.285;  441.362;-9.8579e-003
 924.16;  441.802;-1.0060e-002
 925.037;  442.241;-1.0263e-002
 925.92;  442.68;-1.0469e-002
 926.807;  443.119;-1.0673e-002
 927.672;  443.558;-1.0881e-002
 928.558;  443.998;-1.1088e-002
 929.427;  444.437;-1.1293e-002
 930.308;  444.876;-1.1502e-002
 931.186;  445.315;-1.1710e-002
 932.066;  445.754;-1.1915e-002
 932.945;  446.193;-1.2127e-002
 933.818;  446.633;-1.2343e-002
 934.703;  447.072;-1.2556e-002
 935.574;  447.511;-1.2762e-002
 936.459;  447.95;-1.2977e-002
 937.345;  448.389;-1.3191e-002
 938.209;  448.828;-1.3405e-002
 939.097;  449.267;-1.3620e-002
 939.972;  449.707;-1.3835e-002
 940.848;  450.146;-1.4048e-002
 941.722;  450.585;-1.4267e-002
 942.6;  451.024;-1.4485e-002
 943.471;  451.463;-1.4701e-002
 944.353;  451.902;-1.4911e-002
 945.239;  452.342;-1.5134e-002
 946.107;  452.781;-1.5355e-002
 946.995;  453.22;-1.5576e-002
 947.861;  453.659;-1.5795e-002
 948.746;  454.098;-1.6016e-002
 949.614;  454.538;-1.6232e-002
 950.5;  454.977;-1.6457e-002
 951.397;  455.416;-1.6676e-002
 952.257;  455.855;-1.6901e-002
 953.145;  456.294;-1.7118e-002
 954.004;  456.733;-1.7345e-002
 954.895;  457.172;-1.7572e-002
 955.769;  457.612;-1.7800e-002
 956.654;  458.051;-1.8020e-002
 957.52;  458.49;-1.8252e-002
 958.397;  458.929;-1.8483e-002
 959.285;  459.368;-1.8710e-002
 960.159;  459.808;-1.8940e-002
 961.039;  460.247;-1.9166e-002
 961.901;  460.686;-1.9392e-002
 962.787;  461.125;-1.9629e-002
 963.662;  461.564;-1.9855e-002
 964.543;  462.003;-2.0087e-002
 965.439;  462.442;-2.0324e-002
 966.304;  462.882;-2.0558e-002
 967.184;  463.321;-2.0793e-002
 968.052;  463.76;-2.1026e-002
 968.941;  464.199;-2.1256e-002
 969.811;  464.638;-2.1491e-002
 970.695;  465.078;-2.1731e-002
 971.57;  465.517;-2.1975e-002
 972.446;  465.956;-2.2210e-002
 973.325;  466.395;-2.2452e-002
 974.203;  466.834;-2.2691e-002
 975.086;  467.273;-2.2936e-002
 975.963;  467.712;-2.3179e-002
 976.84;  468.152;-2.3425e-002
 977.724;  468.591;-2.3675e-002
 978.6;  469.03;-2.3915e-002
 979.483;  469.469;-2.4162e-002
 980.35;  469.908;-2.4415e-002
 981.236;  470.348;-2.4662e-002
 982.109;  470.787;-2.4911e-002
 982.991;  471.226;-2.5159e-002
 983.87;  471.665;-2.5404e-002
 984.75;  472.104;-2.5646e-002
 985.64;  472.543;-2.5906e-002
 986.51;  472.983;-2.6168e-002
 987.391;  473.422;-2.6417e-002
 988.27;  473.861;-2.6662e-002
 989.139;  474.3;-2.6929e-002
 990.026;  474.739;-2.7182e-002
 990.898;  475.178;-2.7450e-002
 991.778;  475.617;-2.7696e-002
 992.642;  476.057;-2.7962e-002
 993.536;  476.496;-2.8226e-002
 994.411;  476.935;-2.8465e-002
 995.278;  477.374;-2.8751e-002
 996.178;  477.813;-2.9006e-002
 997.04;  478.252;-2.9278e-002
 997.934;  478.692;-2.9532e-002
 998.793;  479.131;-2.9804e-002
 999.692;  479.57;-3.0072e-002
1000.56;  480.009;-3.0343e-002
1001.44;  480.448;-3.0608e-002
1002.32;  480.888;-3.0877e-002
1003.19;  481.327;-3.1131e-002
1004.08;  481.766;-3.1424e-002
1004.95;  482.205;-3.1690e-002
1005.84;  482.644;-3.1956e-002
1006.71;  483.083;-3.2238e-002
1007.58;  483.522;-3.2514e-002
1008.46;  483.962;-3.2786e-002
1009.34;  484.401;-3.3061e-002
1010.23;  484.84;-3.3342e-002
1011.09;  485.279;-3.3616e-002
1011.99;  485.718;-3.3897e-002
1012.85;  486.158;-3.4172e-002
1013.73;  486.597;-3.4445e-002
1014.61;  487.036;-3.4723e-002
1015.5;  487.475;-3.5010e-002
1016.37;  487.914;-3.5289e-002
1017.25;  488.353;-3.5563e-002
1018.12;  488.793;-3.5844e-002
1019;  489.232;-3.6108e-002
1019.89;  489.671;-3.6419e-002
1020.76;  490.11;-3.6697e-002
1021.64;  490.549;-3.6975e-002
1022.51;  490.988;-3.7257e-002
1023.4;  491.427;-3.7552e-002
1024.27;  491.867;-3.7839e-002
1025.15;  492.306;-3.8112e-002
1026.04;  492.745;-3.8410e-002
1026.91;  493.184;-3.8694e-002
1027.79;  493.623;-3.8951e-002
1028.66;  494.062;-3.9262e-002
1029.54;  494.502;-3.9554e-002
1030.42;  494.941;-3.9841e-002
1031.29;  495.38;-4.0125e-002
1032.18;  495.819;-4.0412e-002
1033.05;  496.258;-4.0705e-002
1033.93;  496.698;-4.0985e-002
1034.81;  497.137;-4.1288e-002
1035.7;  497.576;-4.1581e-002
1036.56;  498.015;-4.1875e-002
1037.44;  498.454;-4.2160e-002
1038.33;  498.893;-4.2454e-002
1039.19;  499.332;-4.2746e-002
1040.09;  499.772;-4.3042e-002
1040.95;  500.211;-4.3329e-002
1041.84;  500.65;-4.3617e-002
1042.71;  501.089;-4.3917e-002
1043.59;  501.528;-4.4203e-002
1044.46;  501.967;-4.4488e-002
1045.35;  502.407;-4.4798e-002
1046.21;  502.846;-4.5084e-002
1047.1;  503.285;-4.5374e-002
1047.97;  503.724;-4.5677e-002
1048.85;  504.163;-4.5960e-002
1049.74;  504.603;-4.6258e-002
1050.6;  505.042;-4.6554e-002
1051.49;  505.481;-4.6831e-002
1052.36;  505.92;-4.7145e-002
1053.25;  506.359;-4.7434e-002
1054.13;  506.798;-4.7731e-002
1055.01;  507.237;-4.8003e-002
1055.89;  507.677;-4.8298e-002
1056.76;  508.116;-4.8614e-002
1057.65;  508.555;-4.8905e-002
1058.51;  508.994;-4.9197e-002
1059.4;  509.433;-4.9487e-002
1060.27;  509.873;-4.9787e-002
1061.14;  510.312;-5.0050e-002
1062.01;  510.751;-5.0362e-002
1062.9;  511.19;-5.0657e-002
1063.79;  511.629;-5.0918e-002
1064.66;  512.068;-5.1237e-002
1065.55;  512.508;-5.1532e-002
1066.42;  512.947;-5.1819e-002
1067.3;  513.386;-5.2134e-002
1068.17;  513.825;-5.2423e-002
1069.05;  514.264;-5.2717e-002
1069.93;  514.703;-5.3005e-002
1070.8;  515.143;-5.3288e-002
1071.68;  515.582;-5.3591e-002
1072.56;  516.021;-5.3863e-002
1073.45;  516.46;-5.4167e-002
1074.32;  516.899;-5.4457e-002
1075.2;  517.338;-5.4753e-002
1076.08;  517.778;-5.5037e-002
1076.96;  518.217;-5.5310e-002
1077.83;  518.656;-5.5605e-002
1078.71;  519.095;-5.5907e-002
1079.6;  519.534;-5.6163e-002
1080.47;  519.973;-5.6486e-002
1081.35;  520.412;-5.6759e-002
1082.21;  520.852;-5.7050e-002
1083.11;  521.291;-5.7326e-002
1083.98;  521.73;-5.7593e-002
1084.86;  522.169;-5.7877e-002
1085.74;  522.608;-5.8148e-002
1086.62;  523.047;-5.8422e-002
1087.49;  523.487;-5.8736e-002
1088.38;  523.926;-5.8993e-002
1089.25;  524.365;-5.9294e-002
1090.12;  524.804;-5.9544e-002
1091.02;  525.243;-5.9842e-002
1091.88;  525.683;-6.0130e-002
1092.77;  526.122;-6.0409e-002
1093.64;  526.561;-6.0665e-002
1094.51;  527;-6.0937e-002
1095.41;  527.439;-6.1206e-002
1096.27;  527.878;-6.1459e-002
1097.16;  528.317;-6.1750e-002
1098.03;  528.757;-6.2012e-002
1098.93;  529.196;-6.2253e-002
1099.79;  529.635;-6.2522e-002
1100.67;  530.074;-6.2777e-002
1101.55;  530.513;-6.3065e-002
1102.43;  530.953;-6.3324e-002
1103.3;  531.392;-6.3601e-002
1104.18;  531.831;-6.3848e-002
1105.06;  532.27;-6.4080e-002
1105.94;  532.709;-6.4359e-002
1106.83;  533.148;-6.4606e-002
1107.68;  533.588;-6.4872e-002
1108.58;  534.027;-6.5119e-002
1109.45;  534.466;-6.5367e-002
1110.33;  534.905;-6.5612e-002
1111.21;  535.344;-6.5894e-002
1112.07;  535.783;-6.6099e-002
1112.97;  536.222;-6.6348e-002
1113.83;  536.662;-6.6595e-002
1114.73;  537.101;-6.6871e-002
1115.59;  537.54;-6.7118e-002
1116.48;  537.979;-6.7338e-002
1117.35;  538.418;-6.7555e-002
1118.23;  538.857;-6.7813e-002
1119.11;  539.297;-6.8054e-002
1119.98;  539.736;-6.8307e-002
1120.87;  540.175;-6.8514e-002
1121.74;  540.614;-6.8772e-002
1122.64;  541.053;-6.8972e-002
1123.5;  541.492;-6.9219e-002
1124.38;  541.932;-6.9442e-002
1125.26;  542.371;-6.9682e-002
1126.14;  542.81;-6.9898e-002
1127.01;  543.249;-7.0072e-002
1127.89;  543.688;-7.0358e-002
1128.77;  544.128;-7.0562e-002
1129.65;  544.567;-7.0795e-002
1130.52;  545.006;-7.1027e-002
1131.39;  545.445;-7.1228e-002
1132.28;  545.884;-7.1438e-002
1133.16;  546.323;-7.1664e-002
1134.04;  546.763;-7.1876e-002
1134.92;  547.202;-7.2054e-002
1135.8;  547.641;-7.2233e-002
1136.67;  548.08;-7.2490e-002
1137.55;  548.519;-7.2702e-002
1138.43;  548.958;-7.2870e-002
1139.31;  549.398;-7.3092e-002
1140.19;  549.837;-7.3305e-002
1141.06;  550.276;-7.3483e-002
1141.94;  550.715;-7.3700e-002
1142.82;  551.154;-7.3880e-002
1143.69;  551.593;-7.4056e-002
1144.57;  552.032;-7.4256e-002
1145.46;  552.472;-7.4421e-002
1146.33;  552.911;-7.4634e-002
1147.22;  553.35;-7.4824e-002
1148.08;  553.789;-7.5001e-002
1148.97;  554.228;-7.5174e-002
1149.83;  554.667;-7.5322e-002
1150.73;  555.107;-7.5515e-002
1151.6;  555.546;-7.5685e-002
1152.47;  555.985;-7.5873e-002
1153.37;  556.424;-7.6014e-002
1154.23;  556.863;-7.6159e-002
1155.13;  557.302;-7.6358e-002
1155.98;  557.742;-7.6519e-002
1156.86;  558.181;-7.6683e-002
1157.74;  558.62;-7.6842e-002
1158.63;  559.059;-7.6977e-002
1159.5;  559.498;-7.7128e-002
1160.4;  559.938;-7.7281e-002
1161.27;  560.377;-7.7421e-002
1162.15;  560.816;-7.7545e-002
1163.01;  561.255;-7.7716e-002
1163.89;  561.694;-7.7870e-002
1164.78;  562.133;-7.7982e-002
1165.65;  562.573;-7.8120e-002
1166.55;  563.012;-7.8240e-002
1167.4;  563.451;-7.8401e-002
1168.3;  563.89;-7.8527e-002
1169.17;  564.329;-7.8664e-002
1170.05;  564.768;-7.8769e-002
1170.93;  565.208;-7.8867e-002
1171.8;  565.647;-7.9009e-002
1172.68;  566.086;-7.9153e-002
1173.56;  566.525;-7.9295e-002
1174.44;  566.964;-7.9385e-002
1175.3;  567.403;-7.9492e-002
1176.21;  567.843;-7.9635e-002
1177.07;  568.282;-7.9737e-002
1177.95;  568.721;-7.9846e-002
1178.82;  569.16;-7.9949e-002
1179.71;  569.599;-8.0076e-002
1180.58;  570.038;-8.0190e-002
1181.46;  570.477;-8.0270e-002
1182.34;  570.917;-8.0369e-002
1183.22;  571.356;-8.0487e-002
1184.1;  571.795;-8.0586e-002
1184.98;  572.234;-8.0655e-002
1185.85;  572.673;-8.0772e-002
1186.72;  573.112;-8.0855e-002
1187.62;  573.552;-8.0940e-002
1188.48;  573.991;-8.1067e-002
1189.36;  574.43;-8.1141e-002
1190.24;  574.869;-8.1229e-002
1191.12;  575.308;-8.1283e-002
1192;  575.747;-8.1429e-002
1192.89;  576.187;-8.1513e-002
1193.77;  576.626;-8.1548e-002
1194.64;  577.065;-8.1678e-002
1195.52;  577.504;-8.1764e-002
1196.39;  577.943;-8.1795e-002
1197.28;  578.383;-8.1916e-002
1198.14;  578.822;-8.1981e-002
1199.03;  579.261;-8.2032e-002
1199.91;  579.7;-8.2130e-002
1200.79;  580.139;-8.2188e-002
1201.65;  580.578;-8.2287e-002
1202.54;  581.018;-8.2326e-002
1203.41;  581.457;-8.2394e-002
1204.3;  581.896;-8.2483e-002
1205.18;  582.335;-8.2535e-002
1206.07;  582.774;-8.2635e-002
1206.93;  583.213;-8.2693e-002
1207.81;  583.653;-8.2772e-002
1208.7;  584.092;-8.2822e-002
1209.57;  584.531;-8.2872e-002
1210.44;  584.97;-8.2951e-002
1211.32;  585.409;-8.3009e-002
1212.2;  585.848;-8.3058e-002
1213.07;  586.287;-8.3134e-002
1213.97;  586.727;-8.3149e-002
1214.84;  587.166;-8.3218e-002
1215.72;  587.605;-8.3260e-002
1216.59;  588.044;-8.3331e-002
1217.48;  588.483;-8.3395e-002
1218.35;  588.922;-8.3440e-002
1219.21;  589.362;-8.3508e-002
1220.11;  589.801;-8.3576e-002
1220.99;  590.24;-8.3618e-002
1221.86;  590.679;-8.3662e-002
1222.73;  591.118;-8.3732e-002
1223.62;  591.558;-8.3717e-002
1224.5;  591.997;-8.3781e-002
1225.38;  592.436;-8.3865e-002
1226.24;  592.875;-8.3911e-002
1227.15;  593.314;-8.3957e-002
1228;  593.753;-8.3993e-002
1228.91;  594.192;-8.4011e-002
1229.77;  594.632;-8.4085e-002
1230.65;  595.071;-8.4142e-002
1231.53;  595.51;-8.4174e-002
1232.4;  595.949;-8.4210e-002
1233.28;  596.388;-8.4272e-002
1234.17;  596.828;-8.4300e-002
1235.04;  597.267;-8.4333e-002
1235.93;  597.706;-8.4420e-002
1236.8;  598.145;-8.4455e-002
1237.68;  598.584;-8.4493e-002
1238.56;  599.023;-8.4511e-002
1239.43;  599.463;-8.4577e-002
1240.3;  599.902;-8.4612e-002
1241.18;  600.341;-8.4632e-002
1242.07;  600.78;-8.4608e-002
1242.94;  601.219;-8.4741e-002
1243.83;  601.658;-8.4758e-002
1244.69;  602.097;-8.4823e-002
1245.58;  602.537;-8.4750e-002
1246.46;  602.976;-8.4899e-002
1247.32;  603.415;-8.4934e-002
1248.21;  603.854;-8.4965e-002
1249.09;  604.293;-8.4998e-002
1249.97;  604.732;-8.5041e-002
1250.85;  605.172;-8.5077e-002
1251.73;  605.611;-8.5070e-002
1252.6;  606.05;-8.5121e-002
1253.49;  606.489;-8.5166e-002
1254.36;  606.928;-8.5211e-002
1255.24;  607.367;-8.5235e-002
1256.1;  607.807;-8.5216e-002
1256.99;  608.246;-8.5276e-002
1257.87;  608.685;-8.5336e-002
1258.76;  609.124;-8.5327e-002
1259.64;  609.563;-8.5395e-002
1260.53;  610.003;-8.5392e-002
1261.38;  610.442;-8.5445e-002
1262.27;  610.881;-8.5450e-002
1263.15;  611.32;-8.5487e-002
1264.02;  611.759;-8.5536e-002
1264.9;  612.198;-8.5546e-002
1265.77;  612.638;-8.5558e-002
1266.65;  613.077;-8.5598e-002
1267.53;  613.516;-8.5642e-002
1268.42;  613.955;-8.5672e-002
1269.28;  614.394;-8.5683e-002
1270.2;  614.833;-8.5723e-002
1271.05;  615.273;-8.5693e-002
1271.92;  615.712;-8.5792e-002
1272.8;  616.151;-8.5789e-002
1273.68;  616.59;-8.5798e-002
1274.57;  617.029;-8.5879e-002
1275.45;  617.468;-8.5892e-002
1276.32;  617.907;-8.5921e-002
1277.21;  618.347;-8.5995e-002
1278.07;  618.786;-8.6029e-002
1278.96;  619.225;-8.6084e-002
1279.84;  619.664;-8.6119e-002
1280.71;  620.103;-8.6159e-002
1281.59;  620.542;-8.6227e-002
1282.46;  620.982;-8.6236e-002
1283.34;  621.421;-8.6300e-002
1284.23;  621.86;-8.6403e-002
1285.11;  622.299;-8.6463e-002
1285.98;  622.738;-8.6512e-002
1286.85;  623.177;-8.6555e-002
1287.73;  623.617;-8.6609e-002
1288.61;  624.056;-8.6757e-002
1289.48;  624.495;-8.6817e-002
1290.37;  624.934;-8.6890e-002
1291.24;  625.373;-8.6989e-002
1292.14;  625.812;-8.7076e-002
1293;  626.252;-8.7166e-002
1293.9;  626.691;-8.7235e-002
1294.75;  627.13;-8.7337e-002
1295.65;  627.569;-8.7339e-002
1296.53;  628.008;-8.7501e-002
1297.41;  628.448;-8.7566e-002
1298.27;  628.887;-8.7625e-002
1299.16;  629.326;-8.7754e-002
1300.03;  629.765;-8.7835e-002
1300.92;  630.204;-8.7906e-002
1301.79;  630.643;-8.8000e-002
1302.69;  631.083;-8.8117e-002
1303.54;  631.522;-8.8196e-002
1304.42;  631.961;-8.8259e-002
1305.31;  632.4;-8.8341e-002
1306.19;  632.839;-8.8442e-002
1307.07;  633.278;-8.8507e-002
1307.93;  633.718;-8.8616e-002
1308.82;  634.157;-8.8681e-002
1309.69;  634.596;-8.8750e-002
1310.58;  635.035;-8.8843e-002
1311.46;  635.474;-8.8925e-002
1312.34;  635.913;-8.8999e-002
1313.21;  636.352;-8.9031e-002
1314.09;  636.792;-8.9121e-002
1314.96;  637.231;-8.9194e-002
1315.86;  637.67;-8.9273e-002
1316.74;  638.109;-8.9324e-002
1317.61;  638.548;-8.9410e-002
1318.5;  638.987;-8.9466e-002
1319.37;  639.427;-8.9545e-002
1320.24;  639.866;-8.9556e-002
1321.13;  640.305;-8.9582e-002
1322;  640.744;-8.9688e-002
1322.88;  641.183;-8.9712e-002
1323.75;  641.622;-8.9816e-002
1324.62;  642.062;-8.9850e-002
1325.51;  642.501;-8.9875e-002
1326.4;  642.94;-8.9917e-002
1327.27;  643.379;-8.9853e-002
1328.14;  643.818;-8.9806e-002
1329.04;  644.258;-8.9816e-002
1329.89;  644.697;-8.9768e-002
1330.77;  645.136;-8.9804e-002
1331.66;  645.575;-8.9688e-002
1332.54;  646.014;-8.9719e-002
1333.43;  646.453;-8.9683e-002
1334.3;  646.893;-8.9654e-002
1335.17;  647.332;-8.9726e-002
1336.07;  647.771;-8.9655e-002
1336.92;  648.21;-8.9695e-002
1337.8;  648.649;-8.9692e-002
1338.68;  649.088;-8.9704e-002
1339.56;  649.528;-8.9612e-002
1340.45;  649.967;-8.9474e-002
1341.32;  650.406;-8.9366e-002
1342.18;  650.845;-8.9296e-002
1343.07;  651.284;-8.9311e-002
1343.95;  651.723;-8.9279e-002
1344.83;  652.162;-8.9192e-002
1345.69;  652.602;-8.9247e-002
1346.59;  653.041;-8.9420e-002
1347.45;  653.48;-8.9477e-002
1348.34;  653.919;-8.9504e-002
1349.23;  654.358;-8.9475e-002
1350.09;  654.797;-8.9425e-002
1350.47;  654.982;-8.9460e-002