File: 000392_correction_saphire_2_1450_Air-static.txt
#FILE:                 ;000392_correction_saphire_2_1450_Air-static.cle
#FORMAT:               ;NETZSCH5
#IDENTITY:             ;000392
#DECIMAL:              ;POINT
#SEPARATOR:            ;SEMICOLON
#MTYPE:                ;DIL
#MSUBTYPE:             ;
#INSTRUMENT:           ;NETZSCH DIL 402 C
#PROJECT:              ;
#DATE/TIME:            ;21.06.2021 21:23:43
#CORR. FILE:           ;
#LABORATORY:           ;НМ
#OPERATOR:             ;Орлов Н.
#REMARK:               ;
#SAMPLE:               ;corr_2
#SAMPLE LENGTH /mm:    ;3.010
#MATERIAL:             ;стандартный образец
#MEASMODE:             ;Standard Expansion
#PURGE GAS 1:          ;
#FLOW RATE 1 /(ml/min):;0
#CORR. CODE:           ;000
#RANGE:                ;40.0/2.0(K/мин)/1450.0
#SEGMENT:              ;S1/1

##Temp./°C;Time/min;dL/Lo
  40.45700;0.0000e+000; 0.0000e+000
  40.53600;    0.48167;-1.6196e-006
  40.75500;    0.96333;-4.5266e-006
  41.13000;    1.44500;-1.3040e-005
  41.54100;    1.92667;-2.2508e-005
  41.99700;    2.40833;-3.4261e-005
  42.53000;    2.89000;-5.0415e-005
  43.16100;    3.37167;-6.8148e-005
  43.83200;    3.85333;-8.8455e-005
  44.56600;    4.33500;-1.1101e-004
  45.37500;    4.81667;-1.3493e-004
  46.23100;    5.29833;-1.6213e-004
  47.14800;    5.78000;-1.8846e-004
  48.11300;    6.26167;-2.1532e-004
  49.12300;    6.74333;-2.4352e-004
  50.18000;    7.22500;-2.7180e-004
  51.27100;    7.70667;-2.9967e-004
  52.38800;    8.18833;-3.2820e-004
  53.54800;    8.67000;-3.5581e-004
  54.71900;    9.15167;-3.8160e-004
  55.89500;    9.63333;-4.0772e-004
  57.11500;   10.11500;-4.3061e-004
  58.30800;   10.59667;-4.5307e-004
  59.54000;   11.07833;-4.7288e-004
  60.74800;   11.56000;-4.9178e-004
  61.96400;   12.04167;-5.0885e-004
  63.17400;   12.52333;-5.2338e-004
  64.38400;   13.00500;-5.3663e-004
  65.59000;   13.48667;-5.4722e-004
  66.78800;   13.96833;-5.5631e-004
  67.95500;   14.45000;-5.6146e-004
  69.12900;   14.93167;-5.6582e-004
  70.28300;   15.41333;-5.6802e-004
  71.43000;   15.89500;-5.6881e-004
  72.55800;   16.37667;-5.6665e-004
  73.66900;   16.85833;-5.6458e-004
  74.77100;   17.34000;-5.5947e-004
  75.85600;   17.82167;-5.5320e-004
  76.92600;   18.30333;-5.4498e-004
  77.99000;   18.78500;-5.3758e-004
  79.02400;   19.26667;-5.2650e-004
  80.06100;   19.74833;-5.1516e-004
  81.08500;   20.23000;-5.0386e-004
  82.09400;   20.71167;-4.9115e-004
  83.08900;   21.19333;-4.7778e-004
  84.06400;   21.67500;-4.6329e-004
  85.04500;   22.15667;-4.4892e-004
  86.02500;   22.63833;-4.3455e-004
  86.97700;   23.12000;-4.2060e-004
  87.93800;   23.60167;-4.0519e-004
  88.88900;   24.08333;-3.8891e-004
  89.82000;   24.56500;-3.7483e-004
  90.75700;   25.04667;-3.5868e-004
  91.71000;   25.52833;-3.4452e-004
  92.64000;   26.01000;-3.3077e-004
  93.56600;   26.49167;-3.1441e-004
  94.48500;   26.97333;-3.0183e-004
  95.42100;   27.45500;-2.8767e-004
  96.35700;   27.93667;-2.7454e-004
  97.27400;   28.41833;-2.6051e-004
  98.20400;   28.90000;-2.4971e-004
  99.14200;   29.38167;-2.3584e-004
 100.076;   29.86333;-2.2413e-004
 101.002;   30.34500;-2.1101e-004
 101.948;   30.82667;-1.9934e-004
 102.888;   31.30833;-1.8812e-004
 103.83;   31.79000;-1.7703e-004
 104.768;   32.27167;-1.6611e-004
 105.711;   32.75333;-1.5735e-004
 106.663;   33.23500;-1.4576e-004
 107.623;   33.71667;-1.3642e-004
 108.578;   34.19833;-1.2703e-004
 109.523;   34.68000;-1.1669e-004
 110.486;   35.16167;-1.0652e-004
 111.455;   35.64333;-9.8131e-005
 112.413;   36.12500;-8.9452e-005
 113.386;   36.60667;-7.9527e-005
 114.356;   37.08833;-7.0764e-005
 115.317;   37.57000;-6.1296e-005
 116.291;   38.05167;-5.2201e-005
 117.262;   38.53333;-4.3148e-005
 118.233;   39.01500;-3.4095e-005
 119.212;   39.49667;-2.4751e-005
 120.183;   39.97833;-1.6030e-005
 121.156;   40.46000;-8.1395e-006
 122.132;   40.94167; 3.8206e-006
 123.106;   41.42333; 1.2209e-005
 124.082;   41.90500; 2.2384e-005
 125.048;   42.38667; 3.0648e-005
 126.022;   42.86833; 4.0199e-005
 127.006;   43.35000; 4.9211e-005
 127.977;   43.83167; 5.9468e-005
 128.95;   44.31333; 6.8522e-005
 129.92;   44.79500; 7.8696e-005
 130.897;   45.27667; 8.8538e-005
 131.868;   45.75834; 9.8131e-005
 132.839;   46.24000; 1.0814e-004
 133.805;   46.72167; 1.1786e-004
 134.774;   47.20333; 1.2699e-004
 135.745;   47.68500; 1.3858e-004
 136.71;   48.16667; 1.4792e-004
 137.681;   48.64833; 1.5739e-004
 138.648;   49.13000; 1.6682e-004
 139.618;   49.61167; 1.7762e-004
 140.581;   50.09333; 1.8688e-004
 141.547;   50.57500; 1.9639e-004
 142.52;   51.05667; 2.0698e-004
 143.503;   51.53833; 2.1723e-004
 144.451;   52.02000; 2.2596e-004
 145.408;   52.50167; 2.3762e-004
 146.386;   52.98333; 2.4655e-004
 147.347;   53.46500; 2.5644e-004
 148.311;   53.94667; 2.6640e-004
 149.274;   54.42833; 2.7471e-004
 150.245;   54.91000; 2.8609e-004
 151.198;   55.39167; 2.9464e-004
 152.166;   55.87333; 3.0498e-004
 153.132;   56.35500; 3.1516e-004
 154.091;   56.83667; 3.2247e-004
 155.056;   57.31833; 3.3289e-004
 156.028;   57.80000; 3.4323e-004
 156.978;   58.28167; 3.5345e-004
 157.957;   58.76333; 3.6200e-004
 158.916;   59.24500; 3.7180e-004
 159.881;   59.72667; 3.8227e-004
 160.852;   60.20833; 3.9082e-004
 161.819;   60.69000; 4.0100e-004
 162.777;   61.17167; 4.0980e-004
 163.746;   61.65333; 4.1935e-004
 164.706;   62.13500; 4.2911e-004
 165.675;   62.61666; 4.3742e-004
 166.635;   63.09833; 4.4797e-004
 167.619;   63.58000; 4.5606e-004
 168.586;   64.06167; 4.6657e-004
 169.547;   64.54333; 4.7475e-004
 170.513;   65.02500; 4.8501e-004
 171.487;   65.50667; 4.9311e-004
 172.455;   65.98833; 5.0174e-004
 173.416;   66.47000; 5.0997e-004
 174.387;   66.95167; 5.2018e-004
 175.343;   67.43333; 5.2998e-004
 176.312;   67.91500; 5.4008e-004
 177.278;   68.39667; 5.4838e-004
 178.245;   68.87833; 5.5806e-004
 179.208;   69.36000; 5.6807e-004
 180.181;   69.84167; 5.7579e-004
 181.143;   70.32333; 5.8509e-004
 182.114;   70.80500; 5.9435e-004
 183.085;   71.28667; 6.0403e-004
 184.043;   71.76833; 6.1287e-004
 185.003;   72.25000; 6.2288e-004
 185.968;   72.73167; 6.3090e-004
 186.934;   73.21333; 6.3891e-004
 187.901;   73.69500; 6.4959e-004
 188.871;   74.17667; 6.5843e-004
 189.827;   74.65833; 6.6582e-004
 190.788;   75.14000; 6.7459e-004
 191.753;   75.62167; 6.8414e-004
 192.715;   76.10333; 6.9261e-004
 193.681;   76.58500; 7.0037e-004
 194.643;   77.06667; 7.0818e-004
 195.613;   77.54833; 7.1674e-004
 196.568;   78.03000; 7.2708e-004
 197.542;   78.51167; 7.3675e-004
 198.507;   78.99333; 7.4510e-004
 199.462;   79.47500; 7.5399e-004
 200.421;   79.95667; 7.6229e-004
 201.391;   80.43833; 7.6944e-004
 202.361;   80.92000; 7.7828e-004
 203.321;   81.40166; 7.8630e-004
 204.282;   81.88333; 7.9406e-004
 205.261;   82.36500; 8.0278e-004
 206.22;   82.84666; 8.1146e-004
 207.19;   83.32833; 8.1919e-004
 208.149;   83.81000; 8.2824e-004
 209.111;   84.29166; 8.3692e-004
 210.076;   84.77333; 8.4597e-004
 211.044;   85.25500; 8.5166e-004
 212.013;   85.73666; 8.6171e-004
 212.972;   86.21833; 8.7010e-004
 213.931;   86.70000; 8.7778e-004
 214.901;   87.18166; 8.8476e-004
 215.867;   87.66333; 8.9157e-004
 216.83;   88.14500; 9.0233e-004
 217.811;   88.62666; 9.0972e-004
 218.763;   89.10833; 9.1823e-004
 219.73;   89.59000; 9.2579e-004
 220.697;   90.07166; 9.3555e-004
 221.663;   90.55334; 9.4211e-004
 222.625;   91.03500; 9.5054e-004
 223.588;   91.51667; 9.5880e-004
 224.549;   91.99834; 9.6703e-004
 225.522;   92.48000; 9.7454e-004
 226.483;   92.96167; 9.8293e-004
 227.451;   93.44334; 9.9153e-004
 228.414;   93.92500; 9.9917e-004
 229.381;   94.40667; 1.0079e-003
 230.341;   94.88834; 1.0167e-003
 231.309;   95.37000; 1.0235e-003
 232.273;   95.85167; 1.0339e-003
 233.226;   96.33334; 1.0421e-003
 234.203;   96.81500; 1.0493e-003
 235.161;   97.29667; 1.0560e-003
 236.131;   97.77834; 1.0648e-003
 237.092;   98.26000; 1.0738e-003
 238.064;   98.74167; 1.0820e-003
 239.025;   99.22334; 1.0909e-003
 239.984;   99.70500; 1.0973e-003
 240.954;  100.187; 1.1053e-003
 241.913;  100.668; 1.1142e-003
 242.88;  101.15; 1.1199e-003
 243.838;  101.632; 1.1279e-003
 244.803;  102.113; 1.1360e-003
 245.771;  102.595; 1.1446e-003
 246.745;  103.077; 1.1517e-003
 247.703;  103.558; 1.1587e-003
 248.674;  104.04; 1.1673e-003
 249.628;  104.522; 1.1747e-003
 250.601;  105.003; 1.1834e-003
 251.554;  105.485; 1.1912e-003
 252.528;  105.967; 1.1990e-003
 253.487;  106.448; 1.2083e-003
 254.449;  106.93; 1.2142e-003
 255.415;  107.412; 1.2216e-003
 256.375;  107.893; 1.2326e-003
 257.35;  108.375; 1.2391e-003
 258.31;  108.857; 1.2468e-003
 259.273;  109.338; 1.2532e-003
 260.232;  109.82; 1.2614e-003
 261.204;  110.302; 1.2680e-003
 262.165;  110.783; 1.2771e-003
 263.13;  111.265; 1.2838e-003
 264.099;  111.747; 1.2900e-003
 265.071;  112.228; 1.2979e-003
 266.027;  112.71; 1.3078e-003
 266.985;  113.192; 1.3159e-003
 267.949;  113.673; 1.3229e-003
 268.908;  114.155; 1.3310e-003
 269.876;  114.637; 1.3371e-003
 270.836;  115.118; 1.3463e-003
 271.804;  115.6; 1.3546e-003
 272.766;  116.082; 1.3628e-003
 273.723;  116.563; 1.3707e-003
 274.693;  117.045; 1.3794e-003
 275.657;  117.527; 1.3873e-003
 276.619;  118.008; 1.3941e-003
 277.584;  118.49; 1.4027e-003
 278.547;  118.972; 1.4105e-003
 279.51;  119.453; 1.4171e-003
 280.474;  119.935; 1.4246e-003
 281.446;  120.417; 1.4331e-003
 282.409;  120.898; 1.4405e-003
 283.366;  121.38; 1.4466e-003
 284.342;  121.862; 1.4542e-003
 285.296;  122.343; 1.4622e-003
 286.269;  122.825; 1.4687e-003
 287.229;  123.307; 1.4786e-003
 288.196;  123.788; 1.4833e-003
 289.155;  124.27; 1.4919e-003
 290.128;  124.752; 1.5004e-003
 291.092;  125.233; 1.5086e-003
 292.06;  125.715; 1.5159e-003
 293.01;  126.197; 1.5222e-003
 293.974;  126.678; 1.5279e-003
 294.937;  127.16; 1.5367e-003
 295.91;  127.642; 1.5441e-003
 296.869;  128.123; 1.5515e-003
 297.833;  128.605; 1.5593e-003
 298.8;  129.087; 1.5670e-003
 299.766;  129.568; 1.5750e-003
 300.728;  130.05; 1.5812e-003
 301.691;  130.532; 1.5876e-003
 302.657;  131.013; 1.5969e-003
 303.628;  131.495; 1.6034e-003
 304.587;  131.977; 1.6106e-003
 305.552;  132.458; 1.6177e-003
 306.519;  132.94; 1.6253e-003
 307.486;  133.422; 1.6315e-003
 308.432;  133.903; 1.6395e-003
 309.408;  134.385; 1.6456e-003
 310.371;  134.867; 1.6544e-003
 311.336;  135.348; 1.6589e-003
 312.296;  135.83; 1.6665e-003
 313.262;  136.312; 1.6741e-003
 314.222;  136.793; 1.6832e-003
 315.191;  137.275; 1.6888e-003
 316.152;  137.757; 1.6966e-003
 317.111;  138.238; 1.7024e-003
 318.088;  138.72; 1.7106e-003
 319.045;  139.202; 1.7184e-003
 320.011;  139.683; 1.7254e-003
 320.971;  140.165; 1.7306e-003
 321.932;  140.647; 1.7399e-003
 322.895;  141.128; 1.7466e-003
 323.862;  141.61; 1.7541e-003
 324.821;  142.092; 1.7620e-003
 325.795;  142.573; 1.7671e-003
 326.744;  143.055; 1.7729e-003
 327.713;  143.537; 1.7805e-003
 328.681;  144.018; 1.7876e-003
 329.637;  144.5; 1.7963e-003
 330.605;  144.982; 1.8024e-003
 331.569;  145.463; 1.8113e-003
 332.533;  145.945; 1.8150e-003
 333.491;  146.427; 1.8223e-003
 334.461;  146.908; 1.8328e-003
 335.424;  147.39; 1.8388e-003
 336.382;  147.872; 1.8456e-003
 337.35;  148.353; 1.8533e-003
 338.315;  148.835; 1.8579e-003
 339.275;  149.317; 1.8667e-003
 340.238;  149.798; 1.8742e-003
 341.204;  150.28; 1.8806e-003
 342.17;  150.762; 1.8879e-003
 343.131;  151.243; 1.8942e-003
 344.099;  151.725; 1.9026e-003
 345.063;  152.207; 1.9078e-003
 346.029;  152.688; 1.9150e-003
 346.981;  153.17; 1.9213e-003
 347.953;  153.652; 1.9304e-003
 348.916;  154.133; 1.9372e-003
 349.882;  154.615; 1.9424e-003
 350.848;  155.097; 1.9498e-003
 351.81;  155.578; 1.9578e-003
 352.777;  156.06; 1.9646e-003
 353.733;  156.542; 1.9710e-003
 354.709;  157.023; 1.9779e-003
 355.664;  157.505; 1.9843e-003
 356.63;  157.987; 1.9910e-003
 357.597;  158.468; 1.9983e-003
 358.554;  158.95; 2.0036e-003
 359.523;  159.432; 2.0130e-003
 360.485;  159.913; 2.0189e-003
 361.447;  160.395; 2.0262e-003
 362.415;  160.877; 2.0345e-003
 363.375;  161.358; 2.0401e-003
 364.341;  161.84; 2.0472e-003
 365.304;  162.322; 2.0523e-003
 366.265;  162.803; 2.0598e-003
 367.232;  163.285; 2.0664e-003
 368.19;  163.767; 2.0742e-003
 369.156;  164.248; 2.0799e-003
 370.124;  164.73; 2.0883e-003
 371.088;  165.212; 2.0944e-003
 372.053;  165.693; 2.1014e-003
 373.009;  166.175; 2.1073e-003
 373.977;  166.657; 2.1128e-003
 374.937;  167.138; 2.1205e-003
 375.904;  167.62; 2.1262e-003
 376.863;  168.102; 2.1328e-003
 377.83;  168.583; 2.1405e-003
 378.79;  169.065; 2.1469e-003
 379.765;  169.547; 2.1527e-003
 380.721;  170.028; 2.1605e-003
 381.684;  170.51; 2.1669e-003
 382.649;  170.992; 2.1725e-003
 383.615;  171.473; 2.1761e-003
 384.58;  171.955; 2.1840e-003
 385.525;  172.437; 2.1907e-003
 386.488;  172.918; 2.1978e-003
 387.461;  173.4; 2.2047e-003
 388.419;  173.882; 2.2113e-003
 389.383;  174.363; 2.2184e-003
 390.355;  174.845; 2.2221e-003
 391.322;  175.327; 2.2290e-003
 392.283;  175.808; 2.2370e-003
 393.246;  176.29; 2.2432e-003
 394.216;  176.772; 2.2505e-003
 395.175;  177.253; 2.2563e-003
 396.144;  177.735; 2.2637e-003
 397.1;  178.217; 2.2717e-003
 398.062;  178.698; 2.2779e-003
 399.024;  179.18; 2.2861e-003
 399.99;  179.662; 2.2905e-003
 400.955;  180.143; 2.2988e-003
 401.918;  180.625; 2.3047e-003
 402.884;  181.107; 2.3108e-003
 403.842;  181.588; 2.3150e-003
 404.808;  182.07; 2.3233e-003
 405.77;  182.552; 2.3283e-003
 406.735;  183.033; 2.3389e-003
 407.695;  183.515; 2.3454e-003
 408.66;  183.997; 2.3519e-003
 409.631;  184.478; 2.3576e-003
 410.595;  184.96; 2.3647e-003
 411.555;  185.442; 2.3698e-003
 412.517;  185.923; 2.3774e-003
 413.485;  186.405; 2.3838e-003
 414.446;  186.887; 2.3908e-003
 415.405;  187.368; 2.3978e-003
 416.37;  187.85; 2.4030e-003
 417.344;  188.332; 2.4101e-003
 418.299;  188.813; 2.4179e-003
 419.262;  189.295; 2.4236e-003
 420.237;  189.777; 2.4314e-003
 421.194;  190.258; 2.4359e-003
 422.156;  190.74; 2.4421e-003
 423.122;  191.222; 2.4479e-003
 424.085;  191.703; 2.4574e-003
 425.046;  192.185; 2.4630e-003
 426.009;  192.667; 2.4677e-003
 426.974;  193.148; 2.4755e-003
 427.937;  193.63; 2.4804e-003
 428.899;  194.112; 2.4907e-003
 429.855;  194.593; 2.4976e-003
 430.817;  195.075; 2.5029e-003
 431.792;  195.557; 2.5087e-003
 432.751;  196.038; 2.5160e-003
 433.714;  196.52; 2.5238e-003
 434.675;  197.002; 2.5296e-003
 435.642;  197.483; 2.5338e-003
 436.608;  197.965; 2.5425e-003
 437.575;  198.447; 2.5489e-003
 438.525;  198.928; 2.5540e-003
 439.498;  199.41; 2.5618e-003
 440.463;  199.892; 2.5691e-003
 441.423;  200.373; 2.5751e-003
 442.382;  200.855; 2.5812e-003
 443.34;  201.337; 2.5891e-003
 444.313;  201.818; 2.5946e-003
 445.289;  202.3; 2.6023e-003
 446.235;  202.782; 2.6087e-003
 447.209;  203.263; 2.6137e-003
 448.172;  203.745; 2.6209e-003
 449.13;  204.227; 2.6297e-003
 450.09;  204.708; 2.6355e-003
 451.055;  205.19; 2.6411e-003
 452.013;  205.672; 2.6507e-003
 452.988;  206.153; 2.6566e-003
 453.944;  206.635; 2.6657e-003
 454.913;  207.117; 2.6711e-003
 455.873;  207.598; 2.6772e-003
 456.845;  208.08; 2.6815e-003
 457.804;  208.562; 2.6920e-003
 458.769;  209.043; 2.6977e-003
 459.722;  209.525; 2.7053e-003
 460.687;  210.007; 2.7116e-003
 461.652;  210.488; 2.7196e-003
 462.612;  210.97; 2.7245e-003
 463.576;  211.452; 2.7338e-003
 464.537;  211.933; 2.7400e-003
 465.505;  212.415; 2.7439e-003
 466.467;  212.897; 2.7532e-003
 467.435;  213.378; 2.7598e-003
 468.391;  213.86; 2.7663e-003
 469.352;  214.342; 2.7728e-003
 470.319;  214.823; 2.7800e-003
 471.289;  215.305; 2.7878e-003
 472.244;  215.787; 2.7932e-003
 473.215;  216.268; 2.8000e-003
 474.174;  216.75; 2.8066e-003
 475.142;  217.232; 2.8130e-003
 476.1;  217.713; 2.8171e-003
 477.07;  218.195; 2.8256e-003
 478.024;  218.677; 2.8336e-003
 478.997;  219.158; 2.8400e-003
 479.955;  219.64; 2.8465e-003
 480.915;  220.122; 2.8539e-003
 481.876;  220.603; 2.8580e-003
 482.841;  221.085; 2.8661e-003
 483.805;  221.567; 2.8726e-003
 484.777;  222.048; 2.8804e-003
 485.731;  222.53; 2.8882e-003
 486.701;  223.012; 2.8949e-003
 487.665;  223.493; 2.9002e-003
 488.62;  223.975; 2.9065e-003
 489.585;  224.457; 2.9149e-003
 490.553;  224.938; 2.9206e-003
 491.519;  225.42; 2.9273e-003
 492.474;  225.902; 2.9345e-003
 493.445;  226.383; 2.9408e-003
 494.409;  226.865; 2.9477e-003
 495.371;  227.347; 2.9540e-003
 496.331;  227.828; 2.9616e-003
 497.3;  228.31; 2.9655e-003
 498.256;  228.792; 2.9718e-003
 499.22;  229.273; 2.9809e-003
 500.179;  229.755; 2.9872e-003
 501.15;  230.237; 2.9912e-003
 502.112;  230.718; 3.0009e-003
 503.074;  231.2; 3.0083e-003
 504.037;  231.682; 3.0115e-003
 505.009;  232.163; 3.0185e-003
 505.964;  232.645; 3.0256e-003
 506.924;  233.127; 3.0290e-003
 507.892;  233.608; 3.0391e-003
 508.853;  234.09; 3.0463e-003
 509.819;  234.572; 3.0523e-003
 510.781;  235.053; 3.0596e-003
 511.74;  235.535; 3.0669e-003
 512.714;  236.017; 3.0728e-003
 513.685;  236.498; 3.0791e-003
 514.637;  236.98; 3.0863e-003
 515.606;  237.462; 3.0923e-003
 516.557;  237.943; 3.0984e-003
 517.528;  238.425; 3.1058e-003
 518.49;  238.907; 3.1128e-003
 519.451;  239.388; 3.1192e-003
 520.408;  239.87; 3.1264e-003
 521.38;  240.352; 3.1353e-003
 522.336;  240.833; 3.1405e-003
 523.3;  241.315; 3.1476e-003
 524.277;  241.797; 3.1501e-003
 525.236;  242.278; 3.1574e-003
 526.199;  242.76; 3.1662e-003
 527.164;  243.242; 3.1723e-003
 528.127;  243.723; 3.1806e-003
 529.094;  244.205; 3.1850e-003
 530.05;  244.687; 3.1956e-003
 531.012;  245.168; 3.1998e-003
 531.981;  245.65; 3.2062e-003
 532.939;  246.132; 3.2150e-003
 533.902;  246.613; 3.2228e-003
 534.869;  247.095; 3.2308e-003
 535.825;  247.577; 3.2368e-003
 536.797;  248.058; 3.2443e-003
 537.757;  248.54; 3.2500e-003
 538.721;  249.022; 3.2561e-003
 539.691;  249.503; 3.2645e-003
 540.65;  249.985; 3.2727e-003
 541.608;  250.467; 3.2801e-003
 542.578;  250.948; 3.2857e-003
 543.536;  251.43; 3.2936e-003
 544.499;  251.912; 3.3000e-003
 545.461;  252.393; 3.3086e-003
 546.426;  252.875; 3.3140e-003
 547.393;  253.357; 3.3221e-003
 548.349;  253.838; 3.3304e-003
 549.311;  254.32; 3.3357e-003
 550.286;  254.802; 3.3445e-003
 551.248;  255.283; 3.3512e-003
 552.209;  255.765; 3.3569e-003
 553.172;  256.247; 3.3621e-003
 554.135;  256.728; 3.3684e-003
 555.103;  257.21; 3.3759e-003
 556.064;  257.692; 3.3823e-003
 557.031;  258.173; 3.3880e-003
 557.987;  258.655; 3.3965e-003
 558.962;  259.137; 3.4058e-003
 559.912;  259.618; 3.4108e-003
 560.88;  260.1; 3.4172e-003
 561.842;  260.582; 3.4256e-003
 562.805;  261.063; 3.4311e-003
 563.766;  261.545; 3.4373e-003
 564.725;  262.027; 3.4470e-003
 565.69;  262.508; 3.4544e-003
 566.645;  262.99; 3.4597e-003
 567.613;  263.472; 3.4669e-003
 568.572;  263.953; 3.4742e-003
 569.54;  264.435; 3.4796e-003
 570.508;  264.917; 3.4868e-003
 571.471;  265.398; 3.4924e-003
 572.434;  265.88; 3.4985e-003
 573.403;  266.362; 3.5061e-003
 574.371;  266.843; 3.5141e-003
 575.33;  267.325; 3.5211e-003
 576.281;  267.807; 3.5278e-003
 577.243;  268.288; 3.5315e-003
 578.209;  268.77; 3.5429e-003
 579.176;  269.252; 3.5482e-003
 580.142;  269.733; 3.5554e-003
 581.102;  270.215; 3.5646e-003
 582.062;  270.697; 3.5718e-003
 583.024;  271.178; 3.5780e-003
 583.993;  271.66; 3.5852e-003
 584.952;  272.142; 3.5907e-003
 585.918;  272.623; 3.5988e-003
 586.884;  273.105; 3.6029e-003
 587.844;  273.587; 3.6134e-003
 588.807;  274.068; 3.6197e-003
 589.771;  274.55; 3.6252e-003
 590.732;  275.032; 3.6341e-003
 591.703;  275.513; 3.6401e-003
 592.661;  275.995; 3.6482e-003
 593.621;  276.477; 3.6520e-003
 594.587;  276.958; 3.6603e-003
 595.551;  277.44; 3.6678e-003
 596.516;  277.922; 3.6759e-003
 597.473;  278.403; 3.6797e-003
 598.438;  278.885; 3.6892e-003
 599.398;  279.367; 3.6908e-003
 600.361;  279.848; 3.7023e-003
 601.318;  280.33; 3.7065e-003
 602.281;  280.812; 3.7144e-003
 603.245;  281.293; 3.7225e-003
 604.212;  281.775; 3.7309e-003
 605.175;  282.257; 3.7379e-003
 606.135;  282.738; 3.7442e-003
 607.095;  283.22; 3.7523e-003
 608.061;  283.702; 3.7592e-003
 609.021;  284.183; 3.7651e-003
 609.988;  284.665; 3.7728e-003
 610.95;  285.147; 3.7819e-003
 611.92;  285.628; 3.7889e-003
 612.873;  286.11; 3.7944e-003
 613.842;  286.592; 3.8036e-003
 614.806;  287.073; 3.8104e-003
 615.774;  287.555; 3.8178e-003
 616.726;  288.037; 3.8242e-003
 617.693;  288.518; 3.8317e-003
 618.658;  289; 3.8387e-003
 619.625;  289.482; 3.8486e-003
 620.582;  289.963; 3.8548e-003
 621.546;  290.445; 3.8608e-003
 622.509;  290.927; 3.8694e-003
 623.469;  291.408; 3.8772e-003
 624.432;  291.89; 3.8826e-003
 625.393;  292.372; 3.8887e-003
 626.359;  292.853; 3.8965e-003
 627.322;  293.335; 3.9020e-003
 628.29;  293.817; 3.9128e-003
 629.253;  294.298; 3.9221e-003
 630.21;  294.78; 3.9257e-003
 631.169;  295.262; 3.9348e-003
 632.136;  295.743; 3.9431e-003
 633.101;  296.225; 3.9514e-003
 634.061;  296.707; 3.9562e-003
 635.025;  297.188; 3.9616e-003
 635.983;  297.67; 3.9702e-003
 636.955;  298.152; 3.9789e-003
 637.917;  298.633; 3.9864e-003
 638.869;  299.115; 3.9900e-003
 639.836;  299.597; 3.9986e-003
 640.802;  300.078; 4.0080e-003
 641.773;  300.56; 4.0174e-003
 642.736;  301.042; 4.0231e-003
 643.698;  301.523; 4.0291e-003
 644.662;  302.005; 4.0371e-003
 645.613;  302.487; 4.0435e-003
 646.575;  302.968; 4.0512e-003
 647.545;  303.45; 4.0566e-003
 648.505;  303.932; 4.0670e-003
 649.473;  304.413; 4.0737e-003
 650.441;  304.895; 4.0812e-003
 651.404;  305.377; 4.0875e-003
 652.36;  305.858; 4.0966e-003
 653.32;  306.34; 4.1066e-003
 654.285;  306.822; 4.1108e-003
 655.244;  307.303; 4.1194e-003
 656.206;  307.785; 4.1258e-003
 657.173;  308.267; 4.1336e-003
 658.136;  308.748; 4.1410e-003
 659.097;  309.23; 4.1495e-003
 660.072;  309.712; 4.1517e-003
 661.029;  310.193; 4.1646e-003
 661.993;  310.675; 4.1704e-003
 662.957;  311.157; 4.1801e-003
 663.916;  311.638; 4.1848e-003
 664.884;  312.12; 4.1943e-003
 665.846;  312.602; 4.2040e-003
 666.811;  313.083; 4.2107e-003
 667.768;  313.565; 4.2184e-003
 668.726;  314.047; 4.2261e-003
 669.7;  314.528; 4.2358e-003
 670.655;  315.01; 4.2419e-003
 671.621;  315.492; 4.2493e-003
 672.583;  315.973; 4.2554e-003
 673.543;  316.455; 4.2631e-003
 674.506;  316.937; 4.2704e-003
 675.464;  317.418; 4.2775e-003
 676.433;  317.9; 4.2857e-003
 677.4;  318.382; 4.2937e-003
 678.363;  318.863; 4.3018e-003
 679.329;  319.345; 4.3055e-003
 680.298;  319.827; 4.3132e-003
 681.255;  320.308; 4.3237e-003
 682.215;  320.79; 4.3312e-003
 683.169;  321.272; 4.3373e-003
 684.139;  321.753; 4.3469e-003
 685.103;  322.235; 4.3510e-003
 686.072;  322.717; 4.3621e-003
 687.028;  323.198; 4.3691e-003
 687.996;  323.68; 4.3766e-003
 688.956;  324.162; 4.3850e-003
 689.912;  324.643; 4.3916e-003
 690.876;  325.125; 4.3986e-003
 691.843;  325.607; 4.4066e-003
 692.804;  326.088; 4.4148e-003
 693.772;  326.57; 4.4220e-003
 694.732;  327.052; 4.4303e-003
 695.701;  327.533; 4.4373e-003
 696.66;  328.015; 4.4436e-003
 697.624;  328.497; 4.4488e-003
 698.583;  328.978; 4.4614e-003
 699.557;  329.46; 4.4689e-003
 700.522;  329.942; 4.4759e-003
 701.489;  330.423; 4.4843e-003
 702.456;  330.905; 4.4882e-003
 703.412;  331.387; 4.4986e-003
 704.378;  331.868; 4.5048e-003
 705.331;  332.35; 4.5145e-003
 706.295;  332.832; 4.5235e-003
 707.262;  333.313; 4.5306e-003
 708.221;  333.795; 4.5353e-003
 709.178;  334.277; 4.5455e-003
 710.145;  334.758; 4.5535e-003
 711.107;  335.24; 4.5620e-003
 712.066;  335.722; 4.5664e-003
 713.027;  336.203; 4.5752e-003
 713.991;  336.685; 4.5857e-003
 714.959;  337.167; 4.5959e-003
 715.922;  337.648; 4.5983e-003
 716.874;  338.13; 4.6089e-003
 717.845;  338.612; 4.6169e-003
 718.8;  339.093; 4.6239e-003
 719.769;  339.575; 4.6345e-003
 720.738;  340.057; 4.6405e-003
 721.694;  340.538; 4.6458e-003
 722.665;  341.02; 4.6551e-003
 723.619;  341.502; 4.6665e-003
 724.582;  341.983; 4.6724e-003
 725.55;  342.465; 4.6805e-003
 726.513;  342.947; 4.6892e-003
 727.475;  343.428; 4.6969e-003
 728.436;  343.91; 4.6981e-003
 729.398;  344.392; 4.7112e-003
 730.359;  344.873; 4.7207e-003
 731.318;  345.355; 4.7268e-003
 732.285;  345.837; 4.7298e-003
 733.25;  346.318; 4.7411e-003
 734.226;  346.8; 4.7516e-003
 735.182;  347.282; 4.7587e-003
 736.141;  347.763; 4.7664e-003
 737.096;  348.245; 4.7751e-003
 738.063;  348.727; 4.7838e-003
 739.024;  349.208; 4.7919e-003
 739.992;  349.69; 4.7993e-003
 740.958;  350.172; 4.8087e-003
 741.927;  350.653; 4.8143e-003
 742.881;  351.135; 4.8250e-003
 743.842;  351.617; 4.8311e-003
 744.812;  352.098; 4.8397e-003
 745.768;  352.58; 4.8446e-003
 746.737;  353.062; 4.8569e-003
 747.705;  353.543; 4.8643e-003
 748.659;  354.025; 4.8747e-003
 749.619;  354.507; 4.8809e-003
 750.585;  354.988; 4.8919e-003
 751.555;  355.47; 4.8995e-003
 752.505;  355.952; 4.9047e-003
 753.478;  356.433; 4.9123e-003
 754.446;  356.915; 4.9235e-003
 755.408;  357.397; 4.9312e-003
 756.351;  357.878; 4.9400e-003
 757.326;  358.36; 4.9497e-003
 758.291;  358.842; 4.9571e-003
 759.25;  359.323; 4.9636e-003
 760.213;  359.805; 4.9732e-003
 761.18;  360.287; 4.9801e-003
 762.136;  360.768; 4.9905e-003
 763.097;  361.25; 4.9974e-003
 764.06;  361.732; 5.0054e-003
 765.029;  362.213; 5.0129e-003
 765.997;  362.695; 5.0199e-003
 766.945;  363.177; 5.0311e-003
 767.908;  363.658; 5.0371e-003
 768.871;  364.14; 5.0446e-003
 769.843;  364.622; 5.0568e-003
 770.791;  365.103; 5.0651e-003
 771.765;  365.585; 5.0731e-003
 772.727;  366.067; 5.0809e-003
 773.689;  366.548; 5.0895e-003
 774.649;  367.03; 5.0978e-003
 775.614;  367.512; 5.1056e-003
 776.574;  367.993; 5.1090e-003
 777.544;  368.475; 5.1192e-003
 778.507;  368.957; 5.1289e-003
 779.469;  369.438; 5.1375e-003
 780.423;  369.92; 5.1479e-003
 781.386;  370.402; 5.1552e-003
 782.353;  370.883; 5.1616e-003
 783.318;  371.365; 5.1694e-003
 784.28;  371.847; 5.1787e-003
 785.245;  372.328; 5.1891e-003
 786.212;  372.81; 5.1968e-003
 787.176;  373.292; 5.2021e-003
 788.141;  373.773; 5.2099e-003
 789.101;  374.255; 5.2187e-003
 790.059;  374.737; 5.2262e-003
 791.026;  375.218; 5.2364e-003
 791.993;  375.7; 5.2432e-003
 792.958;  376.182; 5.2519e-003
 793.924;  376.663; 5.2583e-003
 794.88;  377.145; 5.2692e-003
 795.834;  377.627; 5.2766e-003
 796.798;  378.108; 5.2885e-003
 797.771;  378.59; 5.2955e-003
 798.733;  379.072; 5.3054e-003
 799.687;  379.553; 5.3136e-003
 800.659;  380.035; 5.3229e-003
 801.616;  380.517; 5.3307e-003
 802.574;  380.998; 5.3383e-003
 803.55;  381.48; 5.3492e-003
 804.518;  381.962; 5.3522e-003
 805.481;  382.443; 5.3663e-003
 806.448;  382.925; 5.3751e-003
 807.405;  383.407; 5.3838e-003
 808.361;  383.888; 5.3913e-003
 809.32;  384.37; 5.4013e-003
 810.289;  384.852; 5.4076e-003
 811.259;  385.333; 5.4185e-003
 812.216;  385.815; 5.4293e-003
 813.176;  386.297; 5.4358e-003
 814.14;  386.778; 5.4464e-003
 815.111;  387.26; 5.4518e-003
 816.078;  387.742; 5.4660e-003
 817.041;  388.223; 5.4751e-003
 818.014;  388.705; 5.4834e-003
 818.956;  389.187; 5.4888e-003
 819.913;  389.668; 5.4985e-003
 820.88;  390.15; 5.5068e-003
 821.848;  390.632; 5.5147e-003
 822.814;  391.113; 5.5244e-003
 823.781;  391.595; 5.5327e-003
 824.751;  392.077; 5.5434e-003
 825.697;  392.558; 5.5517e-003
 826.666;  393.04; 5.5597e-003
 827.63;  393.522; 5.5661e-003
 828.593;  394.003; 5.5760e-003
 829.562;  394.485; 5.5858e-003
 830.516;  394.967; 5.5926e-003
 831.484;  395.448; 5.6044e-003
 832.445;  395.93; 5.6104e-003
 833.407;  396.412; 5.6226e-003
 834.377;  396.893; 5.6290e-003
 835.343;  397.375; 5.6403e-003
 836.294;  397.857; 5.6498e-003
 837.265;  398.338; 5.6575e-003
 838.22;  398.82; 5.6654e-003
 839.191;  399.302; 5.6722e-003
 840.146;  399.783; 5.6829e-003
 841.116;  400.265; 5.6907e-003
 842.078;  400.747; 5.6986e-003
 843.033;  401.228; 5.7106e-003
 843.997;  401.71; 5.7183e-003
 844.959;  402.192; 5.7275e-003
 845.928;  402.673; 5.7348e-003
 846.885;  403.155; 5.7404e-003
 847.854;  403.637; 5.7506e-003
 848.8;  404.118; 5.7624e-003
 849.765;  404.6; 5.7694e-003
 850.743;  405.082; 5.7799e-003
 851.71;  405.563; 5.7879e-003
 852.676;  406.045; 5.7988e-003
 853.632;  406.527; 5.8059e-003
 854.586;  407.008; 5.8110e-003
 855.543;  407.49; 5.8241e-003
 856.511;  407.972; 5.8303e-003
 857.48;  408.453; 5.8404e-003
 858.445;  408.935; 5.8510e-003
 859.407;  409.417; 5.8535e-003
 860.366;  409.898; 5.8680e-003
 861.322;  410.38; 5.8739e-003
 862.292;  410.862; 5.8854e-003
 863.261;  411.343; 5.8905e-003
 864.223;  411.825; 5.9017e-003
 865.186;  412.307; 5.9093e-003
 866.141;  412.788; 5.9207e-003
 867.104;  413.27; 5.9289e-003
 868.059;  413.752; 5.9374e-003
 869.032;  414.233; 5.9469e-003
 869.999;  414.715; 5.9515e-003
 870.961;  415.197; 5.9630e-003
 871.92;  415.678; 5.9739e-003
 872.879;  416.16; 5.9812e-003
 873.844;  416.642; 5.9902e-003
 874.809;  417.123; 5.9972e-003
 875.78;  417.605; 6.0081e-003
 876.74;  418.087; 6.0166e-003
 877.685;  418.568; 6.0284e-003
 878.659;  419.05; 6.0373e-003
 879.627;  419.532; 6.0459e-003
 880.594;  420.013; 6.0549e-003
 881.556;  420.495; 6.0637e-003
 882.507;  420.977; 6.0727e-003
 883.474;  421.458; 6.0799e-003
 884.438;  421.94; 6.0858e-003
 885.41;  422.422; 6.0981e-003
 886.371;  422.903; 6.1080e-003
 887.336;  423.385; 6.1137e-003
 888.305;  423.867; 6.1270e-003
 889.259;  424.348; 6.1325e-003
 890.221;  424.83; 6.1381e-003
 891.178;  425.312; 6.1493e-003
 892.139;  425.793; 6.1616e-003
 893.119;  426.275; 6.1707e-003
 894.072;  426.757; 6.1805e-003
 895.027;  427.238; 6.1898e-003
 895.998;  427.72; 6.1980e-003
 896.962;  428.202; 6.2060e-003
 897.93;  428.683; 6.2142e-003
 898.888;  429.165; 6.2235e-003
 899.844;  429.647; 6.2317e-003
 900.812;  430.128; 6.2444e-003
 901.777;  430.61; 6.2532e-003
 902.749;  431.092; 6.2627e-003
 903.705;  431.573; 6.2642e-003
 904.669;  432.055; 6.2778e-003
 905.632;  432.537; 6.2863e-003
 906.587;  433.018; 6.2949e-003
 907.557;  433.5; 6.3052e-003
 908.514;  433.982; 6.3162e-003
 909.487;  434.463; 6.3206e-003
 910.46;  434.945; 6.3331e-003
 911.401;  435.427; 6.3439e-003
 912.372;  435.908; 6.3479e-003
 913.326;  436.39; 6.3614e-003
 914.297;  436.872; 6.3676e-003
 915.272;  437.353; 6.3797e-003
 916.226;  437.835; 6.3868e-003
 917.188;  438.317; 6.3927e-003
 918.149;  438.798; 6.4029e-003
 919.11;  439.28; 6.4153e-003
 920.077;  439.762; 6.4226e-003
 921.045;  440.243; 6.4331e-003
 922.012;  440.725; 6.4405e-003
 922.963;  441.207; 6.4521e-003
 923.93;  441.688; 6.4560e-003
 924.893;  442.17; 6.4674e-003
 925.861;  442.652; 6.4786e-003
 926.826;  443.133; 6.4873e-003
 927.771;  443.615; 6.4976e-003
 928.733;  444.097; 6.5082e-003
 929.703;  444.578; 6.5139e-003
 930.675;  445.06; 6.5266e-003
 931.644;  445.542; 6.5347e-003
 932.591;  446.023; 6.5440e-003
 933.559;  446.505; 6.5523e-003
 934.515;  446.987; 6.5642e-003
 935.481;  447.468; 6.5709e-003
 936.451;  447.95; 6.5827e-003
 937.421;  448.432; 6.5910e-003
 938.38;  448.913; 6.6009e-003
 939.328;  449.395; 6.6027e-003
 940.29;  449.877; 6.6202e-003
 941.262;  450.358; 6.6279e-003
 942.236;  450.84; 6.6340e-003
 943.198;  451.322; 6.6465e-003
 944.151;  451.803; 6.6541e-003
 945.108;  452.285; 6.6624e-003
 946.083;  452.767; 6.6735e-003
 947.047;  453.248; 6.6844e-003
 948.012;  453.73; 6.6878e-003
 948.958;  454.212; 6.7003e-003
 949.922;  454.693; 6.7082e-003
 950.889;  455.175; 6.7206e-003
 951.849;  455.657; 6.7281e-003
 952.811;  456.138; 6.7377e-003
 953.785;  456.62; 6.7504e-003
 954.749;  457.102; 6.7578e-003
 955.696;  457.583; 6.7644e-003
 956.668;  458.065; 6.7764e-003
 957.633;  458.547; 6.7824e-003
 958.611;  459.028; 6.7932e-003
 959.56;  459.51; 6.8025e-003
 960.514;  459.992; 6.8051e-003
 961.474;  460.473; 6.8189e-003
 962.447;  460.955; 6.8273e-003
 963.412;  461.437; 6.8350e-003
 964.37;  461.918; 6.8472e-003
 965.329;  462.4; 6.8493e-003
 966.287;  462.882; 6.8650e-003
 967.256;  463.363; 6.8770e-003
 968.229;  463.845; 6.8867e-003
 969.201;  464.327; 6.8951e-003
 970.154;  464.808; 6.9038e-003
 971.107;  465.29; 6.9164e-003
 972.077;  465.772; 6.9238e-003
 973.046;  466.253; 6.9301e-003
 974.016;  466.735; 6.9399e-003
 974.965;  467.217; 6.9490e-003
 975.922;  467.698; 6.9593e-003
 976.889;  468.18; 6.9679e-003
 977.854;  468.662; 6.9783e-003
 978.832;  469.143; 6.9880e-003
 979.778;  469.625; 6.9994e-003
 980.736;  470.107; 7.0050e-003
 981.706;  470.588; 7.0149e-003
 982.668;  471.07; 7.0204e-003
 983.635;  471.552; 7.0327e-003
 984.607;  472.033; 7.0393e-003
 985.562;  472.515; 7.0520e-003
 986.519;  472.997; 7.0579e-003
 987.477;  473.478; 7.0691e-003
 988.442;  473.96; 7.0761e-003
 989.418;  474.442; 7.0897e-003
 990.382;  474.923; 7.1014e-003
 991.346;  475.405; 7.1096e-003
 992.307;  475.887; 7.1221e-003
 993.273;  476.368; 7.1303e-003
 994.229;  476.85; 7.1389e-003
 995.198;  477.332; 7.1467e-003
 996.174;  477.813; 7.1574e-003
 997.129;  478.295; 7.1573e-003
 998.08;  478.777; 7.1756e-003
 999.054;  479.258; 7.1835e-003
1000.02;  479.74; 7.1938e-003
1000.98;  480.222; 7.2028e-003
1001.92;  480.703; 7.2092e-003
1002.9;  481.185; 7.2224e-003
1003.86;  481.667; 7.2309e-003
1004.83;  482.148; 7.2434e-003
1005.78;  482.63; 7.2520e-003
1006.76;  483.112; 7.2596e-003
1007.72;  483.593; 7.2672e-003
1008.68;  484.075; 7.2816e-003
1009.64;  484.557; 7.2928e-003
1010.61;  485.038; 7.2987e-003
1011.59;  485.52; 7.3125e-003
1012.53;  486.002; 7.3209e-003
1013.49;  486.483; 7.3322e-003
1014.46;  486.965; 7.3378e-003
1015.42;  487.447; 7.3533e-003
1016.38;  487.928; 7.3618e-003
1017.34;  488.41; 7.3737e-003
1018.3;  488.892; 7.3841e-003
1019.27;  489.373; 7.3893e-003
1020.25;  489.855; 7.4003e-003
1021.2;  490.337; 7.4118e-003
1022.17;  490.818; 7.4168e-003
1023.12;  491.3; 7.4315e-003
1024.08;  491.782; 7.4405e-003
1025.06;  492.263; 7.4525e-003
1026.02;  492.745; 7.4600e-003
1026.98;  493.227; 7.4723e-003
1027.93;  493.708; 7.4824e-003
1028.91;  494.19; 7.4924e-003
1029.88;  494.672; 7.4932e-003
1030.84;  495.153; 7.5112e-003
1031.79;  495.635; 7.5193e-003
1032.76;  496.117; 7.5318e-003
1033.71;  496.598; 7.5418e-003
1034.68;  497.08; 7.5494e-003
1035.66;  497.562; 7.5600e-003
1036.61;  498.043; 7.5706e-003
1037.58;  498.525; 7.5815e-003
1038.53;  499.007; 7.5922e-003
1039.5;  499.488; 7.5977e-003
1040.46;  499.97; 7.6076e-003
1041.44;  500.452; 7.6208e-003
1042.39;  500.933; 7.6268e-003
1043.34;  501.415; 7.6382e-003
1044.32;  501.897; 7.6473e-003
1045.28;  502.378; 7.6598e-003
1046.25;  502.86; 7.6694e-003
1047.2;  503.342; 7.6830e-003
1048.16;  503.823; 7.6880e-003
1049.13;  504.305; 7.7017e-003
1050.09;  504.787; 7.7111e-003
1051.06;  505.268; 7.7241e-003
1052.02;  505.75; 7.7301e-003
1052.97;  506.232; 7.7352e-003
1053.94;  506.713; 7.7499e-003
1054.91;  507.195; 7.7651e-003
1055.88;  507.677; 7.7706e-003
1056.83;  508.158; 7.7873e-003
1057.79;  508.64; 7.7936e-003
1058.76;  509.122; 7.8071e-003
1059.72;  509.603; 7.8198e-003
1060.7;  510.085; 7.8312e-003
1061.65;  510.567; 7.8348e-003
1062.61;  511.048; 7.8549e-003
1063.58;  511.53; 7.8645e-003
1064.54;  512.012; 7.8746e-003
1065.51;  512.493; 7.8834e-003
1066.47;  512.975; 7.8928e-003
1067.44;  513.457; 7.9011e-003
1068.39;  513.938; 7.9020e-003
1069.36;  514.42; 7.9177e-003
1070.32;  514.902; 7.9274e-003
1071.29;  515.383; 7.9375e-003
1072.24;  515.865; 7.9438e-003
1073.2;  516.347; 7.9602e-003
1074.18;  516.828; 7.9618e-003
1075.13;  517.31; 7.9783e-003
1076.09;  517.792; 7.9904e-003
1077.05;  518.273; 7.9986e-003
1078.02;  518.755; 8.0071e-003
1078.99;  519.237; 8.0193e-003
1079.95;  519.718; 8.0303e-003
1080.91;  520.2; 8.0410e-003
1081.88;  520.682; 8.0524e-003
1082.83;  521.163; 8.0646e-003
1083.81;  521.645; 8.0760e-003
1084.77;  522.127; 8.0865e-003
1085.73;  522.608; 8.0964e-003
1086.69;  523.09; 8.1066e-003
1087.66;  523.572; 8.1133e-003
1088.62;  524.053; 8.1196e-003
1089.58;  524.535; 8.1293e-003
1090.54;  525.017; 8.1397e-003
1091.51;  525.498; 8.1513e-003
1092.46;  525.98; 8.1579e-003
1093.44;  526.462; 8.1756e-003
1094.4;  526.943; 8.1873e-003
1095.36;  527.425; 8.1937e-003
1096.33;  527.907; 8.2046e-003
1097.29;  528.388; 8.2157e-003
1098.26;  528.87; 8.2295e-003
1099.22;  529.352; 8.2390e-003
1100.18;  529.833; 8.2498e-003
1101.14;  530.315; 8.2612e-003
1102.1;  530.797; 8.2706e-003
1103.08;  531.278; 8.2812e-003
1104.03;  531.76; 8.2912e-003
1104.99;  532.242; 8.2997e-003
1105.95;  532.723; 8.3103e-003
1106.92;  533.205; 8.3260e-003
1107.88;  533.687; 8.3313e-003
1108.85;  534.168; 8.3477e-003
1109.81;  534.65; 8.3557e-003
1110.77;  535.132; 8.3688e-003
1111.74;  535.613; 8.3794e-003
1112.71;  536.095; 8.3846e-003
1113.67;  536.577; 8.3985e-003
1114.63;  537.058; 8.4050e-003
1115.58;  537.54; 8.4163e-003
1116.56;  538.022; 8.4248e-003
1117.52;  538.503; 8.4368e-003
1118.48;  538.985; 8.4463e-003
1119.42;  539.467; 8.4591e-003
1120.4;  539.948; 8.4668e-003
1121.36;  540.43; 8.4815e-003
1122.34;  540.912; 8.4906e-003
1123.3;  541.393; 8.5004e-003
1124.27;  541.875; 8.5075e-003
1125.22;  542.357; 8.5177e-003
1126.2;  542.838; 8.5267e-003
1127.16;  543.32; 8.5432e-003
1128.11;  543.802; 8.5548e-003
1129.07;  544.283; 8.5617e-003
1130.03;  544.765; 8.5756e-003
1131.01;  545.247; 8.5894e-003
1131.96;  545.728; 8.5990e-003
1132.92;  546.21; 8.6065e-003
1133.88;  546.692; 8.6214e-003
1134.85;  547.173; 8.6288e-003
1135.81;  547.655; 8.6415e-003
1136.79;  548.137; 8.6552e-003
1137.74;  548.618; 8.6586e-003
1138.7;  549.1; 8.6767e-003
1139.66;  549.582; 8.6904e-003
1140.64;  550.063; 8.7023e-003
1141.6;  550.545; 8.7055e-003
1142.55;  551.027; 8.7199e-003
1143.51;  551.508; 8.7265e-003
1144.48;  551.99; 8.7364e-003
1145.43;  552.472; 8.7499e-003
1146.41;  552.953; 8.7590e-003
1147.38;  553.435; 8.7686e-003
1148.32;  553.917; 8.7797e-003
1149.3;  554.398; 8.7879e-003
1150.27;  554.88; 8.8015e-003
1151.22;  555.362; 8.8129e-003
1152.18;  555.843; 8.8200e-003
1153.15;  556.325; 8.8345e-003
1154.12;  556.807; 8.8419e-003
1155.08;  557.288; 8.8575e-003
1156.05;  557.77; 8.8598e-003
1156.99;  558.252; 8.8763e-003
1157.97;  558.733; 8.8909e-003
1158.92;  559.215; 8.8947e-003
1159.88;  559.697; 8.9065e-003
1160.86;  560.178; 8.9172e-003
1161.81;  560.66; 8.9303e-003
1162.79;  561.142; 8.9449e-003
1163.75;  561.623; 8.9487e-003
1164.71;  562.105; 8.9629e-003
1165.68;  562.587; 8.9703e-003
1166.64;  563.068; 8.9789e-003
1167.61;  563.55; 8.9891e-003
1168.57;  564.032; 9.0021e-003
1169.52;  564.513; 9.0068e-003
1170.49;  564.995; 9.0169e-003
1171.45;  565.477; 9.0328e-003
1172.42;  565.958; 9.0439e-003
1173.39;  566.44; 9.0565e-003
1174.35;  566.922; 9.0607e-003
1175.31;  567.403; 9.0759e-003
1176.28;  567.885; 9.0856e-003
1177.25;  568.367; 9.0948e-003
1178.19;  568.848; 9.1087e-003
1179.16;  569.33; 9.1184e-003
1180.12;  569.812; 9.1344e-003
1181.1;  570.293; 9.1441e-003
1182.04;  570.775; 9.1575e-003
1183.01;  571.257; 9.1647e-003
1183.98;  571.738; 9.1755e-003
1184.94;  572.22; 9.1847e-003
1185.91;  572.702; 9.1936e-003
1186.87;  573.183; 9.2048e-003
1187.83;  573.665; 9.2174e-003
1188.79;  574.147; 9.2274e-003
1189.77;  574.628; 9.2389e-003
1190.73;  575.11; 9.2468e-003
1191.68;  575.592; 9.2573e-003
1192.64;  576.073; 9.2657e-003
1193.61;  576.555; 9.2705e-003
1194.59;  577.037; 9.2848e-003
1195.54;  577.518; 9.2863e-003
1196.49;  578; 9.3004e-003
1197.46;  578.482; 9.3085e-003
1198.42;  578.963; 9.3265e-003
1199.4;  579.445; 9.3359e-003
1200.35;  579.927; 9.3438e-003
1201.32;  580.408; 9.3545e-003
1202.27;  580.89; 9.3682e-003
1203.25;  581.372; 9.3807e-003
1204.21;  581.853; 9.3900e-003
1205.17;  582.335; 9.4001e-003
1206.13;  582.817; 9.4042e-003
1207.1;  583.298; 9.4181e-003
1208.05;  583.78; 9.4370e-003
1209.03;  584.262; 9.4422e-003
1209.99;  584.743; 9.4564e-003
1210.96;  585.225; 9.4682e-003
1211.92;  585.707; 9.4812e-003
1212.89;  586.188; 9.4885e-003
1213.84;  586.67; 9.5001e-003
1214.8;  587.152; 9.5094e-003
1215.77;  587.633; 9.5233e-003
1216.74;  588.115; 9.5329e-003
1217.69;  588.597; 9.5447e-003
1218.66;  589.078; 9.5547e-003
1219.63;  589.56; 9.5677e-003
1220.59;  590.042; 9.5756e-003
1221.55;  590.523; 9.5854e-003
1222.52;  591.005; 9.5941e-003
1223.47;  591.487; 9.6009e-003
1224.44;  591.968; 9.6126e-003
1225.41;  592.45; 9.6219e-003
1226.36;  592.932; 9.6360e-003
1227.32;  593.413; 9.6502e-003
1228.29;  593.895; 9.6641e-003
1229.27;  594.377; 9.6732e-003
1230.21;  594.858; 9.6794e-003
1231.17;  595.34; 9.6884e-003
1232.12;  595.822; 9.7005e-003
1233.11;  596.303; 9.7061e-003
1234.07;  596.785; 9.7172e-003
1235.03;  597.267; 9.7265e-003
1235.99;  597.748; 9.7321e-003
1236.94;  598.23; 9.7432e-003
1237.93;  598.712; 9.7456e-003
1238.88;  599.193; 9.7623e-003
1239.85;  599.675; 9.7723e-003
1240.81;  600.157; 9.7787e-003
1241.77;  600.638; 9.7948e-003
1242.74;  601.12; 9.8026e-003
1243.7;  601.602; 9.8159e-003
1244.67;  602.083; 9.8255e-003
1245.63;  602.565; 9.8299e-003
1246.59;  603.047; 9.8466e-003
1247.56;  603.528; 9.8565e-003
1248.52;  604.01; 9.8672e-003
1249.47;  604.492; 9.8766e-003
1250.44;  604.973; 9.8908e-003
1251.43;  605.455; 9.8991e-003
1252.37;  605.937; 9.9126e-003
1253.34;  606.418; 9.9208e-003
1254.29;  606.9; 9.9290e-003
1255.28;  607.382; 9.9432e-003
1256.22;  607.863; 9.9484e-003
1257.19;  608.345; 9.9597e-003
1258.15;  608.827; 9.9707e-003
1259.13;  609.308; 9.9795e-003
1260.08;  609.79; 9.9913e-003
1261.05;  610.272; 9.9987e-003
1262;  610.753; 1.0010e-002
1262.96;  611.235; 1.0020e-002
1263.94;  611.717; 1.0029e-002
1264.89;  612.198; 1.0039e-002
1265.86;  612.68; 1.0049e-002
1266.82;  613.162; 1.0058e-002
1267.78;  613.643; 1.0063e-002
1268.74;  614.125; 1.0069e-002
1269.71;  614.607; 1.0080e-002
1270.67;  615.088; 1.0091e-002
1271.66;  615.57; 1.0096e-002
1272.61;  616.052; 1.0102e-002
1273.57;  616.533; 1.0115e-002
1274.54;  617.015; 1.0121e-002
1275.49;  617.497; 1.0135e-002
1276.47;  617.978; 1.0144e-002
1277.42;  618.46; 1.0149e-002
1278.37;  618.942; 1.0163e-002
1279.33;  619.423; 1.0174e-002
1280.32;  619.905; 1.0180e-002
1281.26;  620.387; 1.0190e-002
1282.23;  620.868; 1.0199e-002
1283.2;  621.35; 1.0205e-002
1284.18;  621.832; 1.0214e-002
1285.13;  622.313; 1.0226e-002
1286.08;  622.795; 1.0231e-002
1287.04;  623.277; 1.0240e-002
1288.02;  623.758; 1.0240e-002
1288.99;  624.24; 1.0247e-002
1289.94;  624.722; 1.0261e-002
1290.89;  625.203; 1.0269e-002
1291.88;  625.685; 1.0277e-002
1292.85;  626.167; 1.0283e-002
1293.8;  626.648; 1.0292e-002
1294.75;  627.13; 1.0302e-002
1295.73;  627.612; 1.0297e-002
1296.68;  628.093; 1.0313e-002
1297.65;  628.575; 1.0316e-002
1298.61;  629.057; 1.0327e-002
1299.57;  629.538; 1.0331e-002
1300.53;  630.02; 1.0344e-002
1301.49;  630.502; 1.0354e-002
1302.46;  630.983; 1.0360e-002
1303.42;  631.465; 1.0362e-002
1304.39;  631.947; 1.0376e-002
1305.34;  632.428; 1.0385e-002
1306.31;  632.91; 1.0390e-002
1307.28;  633.392; 1.0399e-002
1308.24;  633.873; 1.0406e-002
1309.22;  634.355; 1.0414e-002
1310.16;  634.837; 1.0422e-002
1311.12;  635.318; 1.0429e-002
1312.1;  635.8; 1.0436e-002
1313.06;  636.282; 1.0443e-002
1314.02;  636.763; 1.0452e-002
1314.97;  637.245; 1.0450e-002
1315.93;  637.727; 1.0458e-002
1316.92;  638.208; 1.0464e-002
1317.87;  638.69; 1.0464e-002
1318.84;  639.172; 1.0477e-002
1319.79;  639.653; 1.0474e-002
1320.77;  640.135; 1.0484e-002
1321.75;  640.617; 1.0481e-002
1322.7;  641.098; 1.0493e-002
1323.66;  641.58; 1.0494e-002
1324.62;  642.062; 1.0494e-002
1325.6;  642.543; 1.0498e-002
1326.55;  643.025; 1.0509e-002
1327.5;  643.507; 1.0516e-002
1328.49;  643.988; 1.0519e-002
1329.44;  644.47; 1.0526e-002
1330.4;  644.952; 1.0534e-002
1331.37;  645.433; 1.0541e-002
1332.32;  645.915; 1.0547e-002
1333.3;  646.397; 1.0553e-002
1334.26;  646.878; 1.0556e-002
1335.22;  647.36; 1.0555e-002
1336.18;  647.842; 1.0562e-002
1337.14;  648.323; 1.0567e-002
1338.12;  648.805; 1.0577e-002
1339.09;  649.287; 1.0579e-002
1340.02;  649.768; 1.0585e-002
1341;  650.25; 1.0588e-002
1341.96;  650.732; 1.0592e-002
1342.93;  651.213; 1.0600e-002
1343.87;  651.695; 1.0600e-002
1344.85;  652.177; 1.0598e-002
1345.81;  652.658; 1.0608e-002
1346.78;  653.14; 1.0609e-002
1347.73;  653.622; 1.0615e-002
1348.71;  654.103; 1.0613e-002
1349.68;  654.585; 1.0622e-002
1350.63;  655.067; 1.0626e-002
1351.6;  655.548; 1.0625e-002
1352.55;  656.03; 1.0634e-002
1353.51;  656.512; 1.0639e-002
1354.48;  656.993; 1.0639e-002
1355.44;  657.475; 1.0644e-002
1356.41;  657.957; 1.0646e-002
1357.37;  658.438; 1.0650e-002
1358.32;  658.92; 1.0654e-002
1359.3;  659.402; 1.0649e-002
1360.27;  659.883; 1.0649e-002
1361.23;  660.365; 1.0661e-002
1362.18;  660.847; 1.0664e-002
1363.13;  661.328; 1.0667e-002
1364.1;  661.81; 1.0661e-002
1365.07;  662.292; 1.0668e-002
1366.03;  662.773; 1.0664e-002
1366.99;  663.255; 1.0671e-002
1367.96;  663.737; 1.0674e-002
1368.93;  664.218; 1.0674e-002
1369.87;  664.7; 1.0678e-002
1370.85;  665.182; 1.0677e-002
1371.81;  665.663; 1.0680e-002
1372.77;  666.145; 1.0677e-002
1373.74;  666.627; 1.0676e-002
1374.72;  667.108; 1.0671e-002
1375.66;  667.59; 1.0676e-002
1376.64;  668.072; 1.0683e-002
1377.6;  668.553; 1.0674e-002
1378.55;  669.035; 1.0683e-002
1379.52;  669.517; 1.0678e-002
1380.49;  669.998; 1.0688e-002
1381.46;  670.48; 1.0685e-002
1382.41;  670.962; 1.0680e-002
1383.36;  671.443; 1.0689e-002
1384.35;  671.925; 1.0688e-002
1385.29;  672.407; 1.0679e-002
1386.25;  672.888; 1.0685e-002
1387.22;  673.37; 1.0687e-002
1388.21;  673.852; 1.0689e-002
1389.15;  674.333; 1.0689e-002
1390.13;  674.815; 1.0691e-002
1391.09;  675.297; 1.0687e-002
1392.05;  675.778; 1.0690e-002
1393.03;  676.26; 1.0686e-002
1393.98;  676.742; 1.0677e-002
1394.93;  677.223; 1.0686e-002
1395.92;  677.705; 1.0687e-002
1396.87;  678.187; 1.0682e-002
1397.83;  678.668; 1.0681e-002
1398.8;  679.15; 1.0680e-002
1399.76;  679.632; 1.0674e-002
1400.72;  680.113; 1.0678e-002
1401.67;  680.595; 1.0668e-002
1402.63;  681.077; 1.0669e-002
1403.59;  681.558; 1.0665e-002
1404.58;  682.04; 1.0659e-002
1405.54;  682.522; 1.0662e-002
1406.48;  683.003; 1.0655e-002
1407.46;  683.485; 1.0654e-002
1408.42;  683.967; 1.0639e-002
1409.39;  684.448; 1.0640e-002
1410.38;  684.93; 1.0634e-002
1411.32;  685.412; 1.0632e-002
1412.3;  685.893; 1.0626e-002
1413.26;  686.375; 1.0624e-002
1414.22;  686.857; 1.0618e-002
1415.18;  687.338; 1.0612e-002
1416.17;  687.82; 1.0603e-002
1417.11;  688.302; 1.0606e-002
1418.07;  688.783; 1.0594e-002
1419.05;  689.265; 1.0595e-002
1419.99;  689.747; 1.0584e-002
1420.95;  690.228; 1.0575e-002
1421.92;  690.71; 1.0574e-002
1422.89;  691.192; 1.0561e-002
1423.85;  691.673; 1.0553e-002
1424.8;  692.155; 1.0548e-002
1425.76;  692.637; 1.0531e-002
1426.73;  693.118; 1.0527e-002
1427.69;  693.6; 1.0525e-002
1428.68;  694.082; 1.0513e-002
1429.62;  694.563; 1.0513e-002
1430.6;  695.045; 1.0501e-002
1431.55;  695.527; 1.0495e-002
1432.51;  696.008; 1.0485e-002
1433.47;  696.49; 1.0472e-002
1434.46;  696.972; 1.0469e-002
1435.42;  697.453; 1.0462e-002
1436.37;  697.935; 1.0446e-002
1437.34;  698.417; 1.0437e-002
1438.32;  698.898; 1.0418e-002
1439.26;  699.38; 1.0415e-002
1440.22;  699.862; 1.0410e-002
1441.19;  700.343; 1.0400e-002
1442.16;  700.825; 1.0389e-002
1443.11;  701.307; 1.0377e-002
1444.07;  701.788; 1.0366e-002
1445.04;  702.27; 1.0350e-002
1446.01;  702.752; 1.0341e-002
1446.96;  703.233; 1.0331e-002
1447.93;  703.715; 1.0321e-002
1448.89;  704.197; 1.0308e-002
1449.87;  704.678; 1.0295e-002
1450.48;  704.99; 1.0286e-002