File: 000391_correction_saphire_20_1450_Air-static.txt
#FILE:                 ;000391_correction_saphire_20_1450_Air-static.cle
#FORMAT:               ;NETZSCH5
#IDENTITY:             ;000391
#DECIMAL:              ;POINT
#SEPARATOR:            ;SEMICOLON
#MTYPE:                ;DIL
#MSUBTYPE:             ;
#INSTRUMENT:           ;NETZSCH DIL 402 C
#PROJECT:              ;
#DATE/TIME:            ;21.06.2021 12:37:00
#CORR. FILE:           ;
#LABORATORY:           ;НМ
#OPERATOR:             ;Орлов Н.
#REMARK:               ;
#SAMPLE:               ;corr_20
#SAMPLE LENGTH /mm:    ;3.010
#MATERIAL:             ;стандартный образец
#MEASMODE:             ;Standard Expansion
#PURGE GAS 1:          ;
#FLOW RATE 1 /(ml/min):;0
#CORR. CODE:           ;000
#RANGE:                ;40.0/20.0(K/мин)/1450.0
#SEGMENT:              ;S1/1

##Temp./°C;Time/min;dL/Lo
  40.49400;0.0000e+000; 0.0000e+000
  40.50700;5.0000e-002; 7.8904e-007
  40.50700;    0.10000; 2.4917e-007
  40.51700;    0.15000; 1.6196e-006
  40.53200;    0.20000; 4.9834e-007
  40.57100;    0.25000; 9.5515e-007
  40.62400;    0.30000;-1.6611e-007
  40.72400;    0.35000;-8.7209e-007
  40.87300;    0.40000;-5.2326e-006
  41.06900;    0.45000;-6.3538e-006
  41.32600;    0.50000;-7.0183e-006
  41.63000;    0.55000;-1.1752e-005
  41.93400;    0.60000;-1.7816e-005
  42.25500;    0.65000;-1.8231e-005
  42.59100;    0.70000;-2.7492e-005
  42.92700;    0.75000;-3.0482e-005
  43.26900;    0.80000;-3.5756e-005
  43.61300;    0.85000;-4.1819e-005
  43.93500;    0.90000;-4.8007e-005
  44.27400;    0.95000;-5.5689e-005
  44.59200;    1.00000;-6.2666e-005
  44.93300;    1.05000;-6.8771e-005
  45.27300;    1.10000;-7.8987e-005
  45.60900;    1.15000;-8.4053e-005
  45.96000;    1.20000;-9.4103e-005
  46.33900;    1.25000;-1.0100e-004
  46.71400;    1.30000;-1.1142e-004
  47.12000;    1.35000;-1.1960e-004
  47.55600;    1.40000;-1.3052e-004
  48.01400;    1.45000;-1.4032e-004
  48.49900;    1.50000;-1.5000e-004
  49.00900;    1.55000;-1.6121e-004
  49.52900;    1.60000;-1.7176e-004
  50.08500;    1.65000;-1.8335e-004
  50.62400;    1.70000;-1.9635e-004
  51.17900;    1.75000;-2.1063e-004
  51.77100;    1.80000;-2.2475e-004
  52.34200;    1.85000;-2.3846e-004
  52.91200;    1.90000;-2.5179e-004
  53.51100;    1.95000;-2.6528e-004
  54.09900;    2.00000;-2.8202e-004
  54.71600;    2.05000;-2.9743e-004
  55.32200;    2.10000;-3.1346e-004
  55.95400;    2.15000;-3.2919e-004
  56.59100;    2.20000;-3.4626e-004
  57.24800;    2.25000;-3.6246e-004
  57.92900;    2.30000;-3.7911e-004
  58.61700;    2.35000;-3.9772e-004
  59.32500;    2.40000;-4.1753e-004
  60.03700;    2.45000;-4.3601e-004
  60.77300;    2.50000;-4.5507e-004
  61.51100;    2.55000;-4.7276e-004
  62.28300;    2.60000;-4.9448e-004
  63.05200;    2.65000;-5.1366e-004
  63.82800;    2.70000;-5.3895e-004
  64.62600;    2.75000;-5.5523e-004
  65.42000;    2.80000;-5.7807e-004
  66.23200;    2.85000;-6.0199e-004
  67.05400;    2.90000;-6.2475e-004
  67.88300;    2.95000;-6.4373e-004
  68.73000;    3.00000;-6.6877e-004
  69.58500;    3.05000;-6.9456e-004
  70.45000;    3.10000;-7.1836e-004
  71.32000;    3.15000;-7.4165e-004
  72.21100;    3.20000;-7.6483e-004
  73.12200;    3.25000;-7.9319e-004
  74.04300;    3.30000;-8.1541e-004
  74.95800;    3.35000;-8.4261e-004
  75.90100;    3.40000;-8.6765e-004
  76.82900;    3.45000;-8.9701e-004
  77.78800;    3.50000;-9.2085e-004
  78.75500;    3.55000;-9.4730e-004
  79.72800;    3.60000;-9.7575e-004
  80.70900;    3.65000;-1.0037e-003
  81.70700;    3.70000;-1.0331e-003
  82.72100;    3.75000;-1.0609e-003
  83.72500;    3.80000;-1.0886e-003
  84.74400;    3.85000;-1.1180e-003
  85.75800;    3.90000;-1.1471e-003
  86.82300;    3.95000;-1.1775e-003
  87.85400;    4.00000;-1.2070e-003
  88.91400;    4.05000;-1.2385e-003
  89.96600;    4.10000;-1.2681e-003
  91.04900;    4.15000;-1.2978e-003
  92.11800;    4.20000;-1.3303e-003
  93.20200;    4.25000;-1.3618e-003
  94.29200;    4.30000;-1.3927e-003
  95.38900;    4.35000;-1.4242e-003
  96.50200;    4.40000;-1.4566e-003
  97.60300;    4.45000;-1.4903e-003
  98.71800;    4.50000;-1.5216e-003
  99.83800;    4.55000;-1.5543e-003
 100.971;    4.60000;-1.5860e-003
 102.112;    4.65000;-1.6195e-003
 103.247;    4.70000;-1.6523e-003
 104.399;    4.75000;-1.6849e-003
 105.548;    4.80000;-1.7199e-003
 106.713;    4.85000;-1.7528e-003
 107.867;    4.90000;-1.7865e-003
 109.047;    4.95000;-1.8211e-003
 110.233;    5.00000;-1.8563e-003
 111.414;    5.05000;-1.8908e-003
 112.6;    5.10000;-1.9243e-003
 113.797;    5.15000;-1.9588e-003
 115.002;    5.20000;-1.9937e-003
 116.201;    5.25000;-2.0271e-003
 117.414;    5.30000;-2.0604e-003
 118.647;    5.35000;-2.0960e-003
 119.853;    5.40000;-2.1330e-003
 121.079;    5.45000;-2.1671e-003
 122.311;    5.50000;-2.2020e-003
 123.533;    5.55000;-2.2371e-003
 124.783;    5.60000;-2.2726e-003
 126.019;    5.65000;-2.3086e-003
 127.267;    5.70000;-2.3431e-003
 128.514;    5.75000;-2.3788e-003
 129.758;    5.80000;-2.4139e-003
 131.023;    5.85000;-2.4497e-003
 132.283;    5.90000;-2.4852e-003
 133.518;    5.95000;-2.5207e-003
 134.759;    6.00000;-2.5552e-003
 135.947;    6.05000;-2.5892e-003
 137.116;    6.10000;-2.6245e-003
 138.251;    6.15000;-2.6589e-003
 139.348;    6.20000;-2.6928e-003
 140.436;    6.25000;-2.7275e-003
 141.517;    6.30000;-2.7599e-003
 142.618;    6.35000;-2.7939e-003
 143.709;    6.40000;-2.8258e-003
 144.82;    6.45000;-2.8588e-003
 145.936;    6.50000;-2.8913e-003
 147.068;    6.55000;-2.9241e-003
 148.211;    6.60000;-2.9559e-003
 149.357;    6.65000;-2.9870e-003
 150.502;    6.70000;-3.0175e-003
 151.633;    6.75000;-3.0492e-003
 152.794;    6.80000;-3.0802e-003
 153.926;    6.85000;-3.1093e-003
 155.054;    6.90000;-3.1405e-003
 156.186;    6.95000;-3.1693e-003
 157.324;    7.00000;-3.1998e-003
 158.452;    7.05000;-3.2277e-003
 159.599;    7.10000;-3.2569e-003
 160.72;    7.15000;-3.2855e-003
 161.856;    7.20000;-3.3129e-003
 162.984;    7.25000;-3.3421e-003
 164.104;    7.30000;-3.3691e-003
 165.239;    7.35000;-3.3961e-003
 166.377;    7.40000;-3.4225e-003
 167.504;    7.45000;-3.4486e-003
 168.642;    7.50000;-3.4750e-003
 169.789;    7.55000;-3.4999e-003
 170.907;    7.60000;-3.5263e-003
 172.046;    7.65000;-3.5501e-003
 173.18;    7.70000;-3.5752e-003
 174.319;    7.75000;-3.5988e-003
 175.441;    7.80000;-3.6231e-003
 176.578;    7.85000;-3.6465e-003
 177.707;    7.90000;-3.6707e-003
 178.838;    7.95000;-3.6935e-003
 179.968;    8.00000;-3.7161e-003
 181.091;    8.05000;-3.7378e-003
 182.215;    8.10000;-3.7583e-003
 183.356;    8.15000;-3.7801e-003
 184.484;    8.20000;-3.8018e-003
 185.604;    8.25000;-3.8223e-003
 186.747;    8.30000;-3.8411e-003
 187.867;    8.35000;-3.8617e-003
 189.007;    8.40000;-3.8812e-003
 190.131;    8.45000;-3.9013e-003
 191.262;    8.50000;-3.9187e-003
 192.396;    8.55000;-3.9374e-003
 193.506;    8.60000;-3.9554e-003
 194.635;    8.65000;-3.9725e-003
 195.759;    8.70000;-3.9897e-003
 196.893;    8.75000;-4.0080e-003
 198.013;    8.80000;-4.0235e-003
 199.14;    8.85000;-4.0398e-003
 200.263;    8.90000;-4.0566e-003
 201.382;    8.95000;-4.0713e-003
 202.51;    9.00000;-4.0870e-003
 203.626;    9.05000;-4.1010e-003
 204.749;    9.10000;-4.1156e-003
 205.874;    9.15000;-4.1292e-003
 206.992;    9.20000;-4.1434e-003
 208.117;    9.25000;-4.1562e-003
 209.237;    9.30000;-4.1697e-003
 210.357;    9.35000;-4.1814e-003
 211.472;    9.40000;-4.1941e-003
 212.605;    9.45000;-4.2059e-003
 213.725;    9.50000;-4.2170e-003
 214.855;    9.55000;-4.2289e-003
 215.957;    9.60000;-4.2397e-003
 217.09;    9.65000;-4.2504e-003
 218.197;    9.70000;-4.2599e-003
 219.324;    9.75000;-4.2709e-003
 220.442;    9.80000;-4.2802e-003
 221.562;    9.85000;-4.2894e-003
 222.681;    9.90000;-4.2983e-003
 223.782;    9.95000;-4.3076e-003
 224.904;   10.00000;-4.3155e-003
 226.023;   10.05000;-4.3231e-003
 227.149;   10.10000;-4.3298e-003
 228.274;   10.15000;-4.3373e-003
 229.385;   10.20000;-4.3447e-003
 230.51;   10.25000;-4.3511e-003
 231.611;   10.30000;-4.3573e-003
 232.733;   10.35000;-4.3633e-003
 233.85;   10.40000;-4.3685e-003
 234.98;   10.45000;-4.3738e-003
 236.105;   10.50000;-4.3789e-003
 237.199;   10.55000;-4.3849e-003
 238.313;   10.60000;-4.3889e-003
 239.426;   10.65000;-4.3922e-003
 240.54;   10.70000;-4.3964e-003
 241.647;   10.75000;-4.4000e-003
 242.78;   10.80000;-4.4039e-003
 243.876;   10.85000;-4.4065e-003
 244.996;   10.90000;-4.4083e-003
 246.125;   10.95000;-4.4108e-003
 247.236;   11.00000;-4.4130e-003
 248.339;   11.05000;-4.4140e-003
 249.462;   11.10000;-4.4164e-003
 250.568;   11.15000;-4.4164e-003
 251.682;   11.20000;-4.4181e-003
 252.801;   11.25000;-4.4189e-003
 253.897;   11.30000;-4.4192e-003
 255.012;   11.35000;-4.4197e-003
 256.122;   11.40000;-4.4190e-003
 257.234;   11.45000;-4.4186e-003
 258.346;   11.50000;-4.4186e-003
 259.455;   11.55000;-4.4179e-003
 260.566;   11.60000;-4.4154e-003
 261.686;   11.65000;-4.4150e-003
 262.792;   11.70000;-4.4126e-003
 263.889;   11.75000;-4.4111e-003
 264.996;   11.80000;-4.4100e-003
 266.11;   11.85000;-4.4071e-003
 267.208;   11.90000;-4.4061e-003
 268.296;   11.95000;-4.4035e-003
 269.426;   12.00000;-4.4011e-003
 270.52;   12.05000;-4.3978e-003
 271.641;   12.10000;-4.3939e-003
 272.729;   12.15000;-4.3916e-003
 273.84;   12.20000;-4.3878e-003
 274.955;   12.25000;-4.3842e-003
 276.038;   12.30000;-4.3794e-003
 277.147;   12.35000;-4.3771e-003
 278.265;   12.40000;-4.3723e-003
 279.358;   12.45000;-4.3672e-003
 280.457;   12.50000;-4.3624e-003
 281.566;   12.55000;-4.3575e-003
 282.653;   12.60000;-4.3526e-003
 283.759;   12.65000;-4.3476e-003
 284.868;   12.70000;-4.3447e-003
 285.977;   12.75000;-4.3383e-003
 287.085;   12.80000;-4.3333e-003
 288.17;   12.85000;-4.3257e-003
 289.271;   12.90000;-4.3199e-003
 290.384;   12.95000;-4.3140e-003
 291.476;   13.00000;-4.3069e-003
 292.582;   13.05000;-4.3002e-003
 293.687;   13.10000;-4.2933e-003
 294.78;   13.15000;-4.2853e-003
 295.876;   13.20000;-4.2787e-003
 296.984;   13.25000;-4.2715e-003
 298.065;   13.30000;-4.2638e-003
 299.162;   13.35000;-4.2558e-003
 300.274;   13.40000;-4.2481e-003
 301.378;   13.45000;-4.2390e-003
 302.469;   13.50000;-4.2316e-003
 303.56;   13.55000;-4.2226e-003
 304.67;   13.60000;-4.2137e-003
 305.767;   13.65000;-4.2061e-003
 306.856;   13.70000;-4.1972e-003
 307.94;   13.75000;-4.1887e-003
 309.046;   13.80000;-4.1794e-003
 310.145;   13.85000;-4.1703e-003
 311.244;   13.90000;-4.1620e-003
 312.342;   13.95000;-4.1528e-003
 313.423;   14.00000;-4.1423e-003
 314.522;   14.05000;-4.1337e-003
 315.609;   14.10000;-4.1240e-003
 316.712;   14.15000;-4.1133e-003
 317.798;   14.20000;-4.1032e-003
 318.899;   14.25000;-4.0939e-003
 319.988;   14.30000;-4.0845e-003
 321.078;   14.35000;-4.0735e-003
 322.17;   14.40000;-4.0640e-003
 323.255;   14.45000;-4.0526e-003
 324.35;   14.50000;-4.0427e-003
 325.444;   14.55000;-4.0313e-003
 326.528;   14.60000;-4.0218e-003
 327.627;   14.65000;-4.0098e-003
 328.721;   14.70000;-3.9986e-003
 329.813;   14.75000;-3.9896e-003
 330.886;   14.80000;-3.9783e-003
 331.971;   14.85000;-3.9672e-003
 333.057;   14.90000;-3.9556e-003
 334.15;   14.95000;-3.9437e-003
 335.252;   15.00000;-3.9343e-003
 336.326;   15.05000;-3.9190e-003
 337.415;   15.10000;-3.9083e-003
 338.498;   15.15000;-3.8971e-003
 339.584;   15.20000;-3.8846e-003
 340.671;   15.25000;-3.8725e-003
 341.756;   15.30000;-3.8612e-003
 342.841;   15.35000;-3.8493e-003
 343.932;   15.40000;-3.8383e-003
 345.026;   15.45000;-3.8250e-003
 346.091;   15.50000;-3.8137e-003
 347.183;   15.55000;-3.8010e-003
 348.282;   15.60000;-3.7898e-003
 349.365;   15.65000;-3.7765e-003
 350.434;   15.70000;-3.7640e-003
 351.534;   15.75000;-3.7515e-003
 352.607;   15.80000;-3.7403e-003
 353.699;   15.85000;-3.7275e-003
 354.768;   15.90000;-3.7156e-003
 355.858;   15.95000;-3.7034e-003
 356.942;   16.00000;-3.6906e-003
 358.029;   16.05000;-3.6790e-003
 359.111;   16.10000;-3.6655e-003
 360.203;   16.15000;-3.6536e-003
 361.271;   16.20000;-3.6401e-003
 362.351;   16.25000;-3.6271e-003
 363.427;   16.30000;-3.6144e-003
 364.517;   16.35000;-3.6011e-003
 365.598;   16.40000;-3.5882e-003
 366.669;   16.45000;-3.5748e-003
 367.743;   16.50000;-3.5625e-003
 368.828;   16.55000;-3.5501e-003
 369.906;   16.60000;-3.5363e-003
 370.993;   16.65000;-3.5230e-003
 372.064;   16.70000;-3.5100e-003
 373.15;   16.75000;-3.4967e-003
 374.227;   16.80000;-3.4830e-003
 375.311;   16.85000;-3.4695e-003
 376.377;   16.90000;-3.4569e-003
 377.444;   16.95000;-3.4434e-003
 378.53;   17.00000;-3.4309e-003
 379.6;   17.05000;-3.4173e-003
 380.686;   17.10000;-3.4046e-003
 381.751;   17.15000;-3.3908e-003
 382.819;   17.20000;-3.3768e-003
 383.892;   17.25000;-3.3636e-003
 384.977;   17.30000;-3.3497e-003
 386.051;   17.35000;-3.3367e-003
 387.117;   17.40000;-3.3233e-003
 388.192;   17.45000;-3.3101e-003
 389.277;   17.50000;-3.2967e-003
 390.339;   17.55000;-3.2831e-003
 391.409;   17.60000;-3.2694e-003
 392.494;   17.65000;-3.2552e-003
 393.553;   17.70000;-3.2410e-003
 394.632;   17.75000;-3.2276e-003
 395.7;   17.80000;-3.2142e-003
 396.776;   17.85000;-3.2006e-003
 397.843;   17.90000;-3.1869e-003
 398.921;   17.95000;-3.1735e-003
 399.99;   18.00000;-3.1613e-003
 401.048;   18.05000;-3.1463e-003
 402.127;   18.10000;-3.1329e-003
 403.182;   18.15000;-3.1192e-003
 404.254;   18.20000;-3.1054e-003
 405.332;   18.25000;-3.0917e-003
 406.395;   18.30000;-3.0775e-003
 407.46;   18.35000;-3.0644e-003
 408.521;   18.40000;-3.0505e-003
 409.593;   18.45000;-3.0369e-003
 410.66;   18.50000;-3.0251e-003
 411.722;   18.55000;-3.0106e-003
 412.79;   18.60000;-2.9987e-003
 413.858;   18.65000;-2.9832e-003
 414.914;   18.70000;-2.9693e-003
 415.972;   18.75000;-2.9563e-003
 417.039;   18.80000;-2.9418e-003
 418.104;   18.85000;-2.9294e-003
 419.169;   18.90000;-2.9143e-003
 420.245;   18.95000;-2.9010e-003
 421.294;   19.00000;-2.8890e-003
 422.355;   19.05000;-2.8746e-003
 423.422;   19.10000;-2.8611e-003
 424.469;   19.15000;-2.8470e-003
 425.529;   19.20000;-2.8329e-003
 426.581;   19.25000;-2.8191e-003
 427.649;   19.30000;-2.8054e-003
 428.703;   19.35000;-2.7919e-003
 429.75;   19.40000;-2.7768e-003
 430.809;   19.45000;-2.7621e-003
 431.866;   19.50000;-2.7485e-003
 432.915;   19.55000;-2.7364e-003
 433.971;   19.60000;-2.7225e-003
 435.027;   19.65000;-2.7078e-003
 436.081;   19.70000;-2.6944e-003
 437.138;   19.75000;-2.6818e-003
 438.187;   19.80000;-2.6687e-003
 439.241;   19.85000;-2.6537e-003
 440.285;   19.90000;-2.6404e-003
 441.337;   19.95000;-2.6265e-003
 442.386;   20.00000;-2.6132e-003
 443.432;   20.05000;-2.5975e-003
 444.477;   20.10000;-2.5858e-003
 445.531;   20.15000;-2.5715e-003
 446.588;   20.20000;-2.5574e-003
 447.621;   20.25000;-2.5431e-003
 448.676;   20.30000;-2.5312e-003
 449.731;   20.35000;-2.5169e-003
 450.769;   20.40000;-2.5027e-003
 451.825;   20.45000;-2.4886e-003
 452.861;   20.50000;-2.4751e-003
 453.904;   20.55000;-2.4618e-003
 454.936;   20.60000;-2.4471e-003
 455.972;   20.65000;-2.4342e-003
 457.028;   20.70000;-2.4213e-003
 458.071;   20.75000;-2.4073e-003
 459.099;   20.80000;-2.3938e-003
 460.137;   20.85000;-2.3792e-003
 461.173;   20.90000;-2.3662e-003
 462.226;   20.95000;-2.3507e-003
 463.263;   21.00000;-2.3380e-003
 464.288;   21.05000;-2.3235e-003
 465.334;   21.10000;-2.3106e-003
 466.367;   21.15000;-2.2979e-003
 467.395;   21.20000;-2.2832e-003
 468.429;   21.25000;-2.2716e-003
 469.469;   21.30000;-2.2564e-003
 470.51;   21.35000;-2.2424e-003
 471.535;   21.40000;-2.2285e-003
 472.56;   21.45000;-2.2154e-003
 473.597;   21.50000;-2.2003e-003
 474.636;   21.55000;-2.1870e-003
 475.68;   21.60000;-2.1741e-003
 476.689;   21.65000;-2.1593e-003
 477.722;   21.70000;-2.1460e-003
 478.751;   21.75000;-2.1328e-003
 479.783;   21.80000;-2.1192e-003
 480.82;   21.85000;-2.1061e-003
 481.836;   21.90000;-2.0927e-003
 482.87;   21.95000;-2.0781e-003
 483.899;   22.00000;-2.0664e-003
 484.927;   22.05000;-2.0525e-003
 485.943;   22.10000;-2.0392e-003
 486.983;   22.15000;-2.0245e-003
 487.992;   22.20000;-2.0106e-003
 489.027;   22.25000;-1.9989e-003
 490.049;   22.30000;-1.9837e-003
 491.063;   22.35000;-1.9711e-003
 492.095;   22.40000;-1.9586e-003
 493.125;   22.45000;-1.9440e-003
 494.144;   22.50000;-1.9302e-003
 495.154;   22.55000;-1.9165e-003
 496.191;   22.60000;-1.9029e-003
 497.199;   22.65000;-1.8902e-003
 498.227;   22.70000;-1.8770e-003
 499.259;   22.75000;-1.8618e-003
 500.287;   22.80000;-1.8522e-003
 501.294;   22.85000;-1.8355e-003
 502.318;   22.90000;-1.8216e-003
 503.322;   22.95000;-1.8087e-003
 504.342;   23.00000;-1.7957e-003
 505.368;   23.05000;-1.7815e-003
 506.387;   23.10000;-1.7697e-003
 507.402;   23.15000;-1.7561e-003
 508.425;   23.20000;-1.7436e-003
 509.439;   23.25000;-1.7313e-003
 510.446;   23.30000;-1.7187e-003
 511.459;   23.35000;-1.7029e-003
 512.481;   23.40000;-1.6897e-003
 513.482;   23.45000;-1.6764e-003
 514.501;   23.50000;-1.6621e-003
 515.517;   23.55000;-1.6490e-003
 516.544;   23.60000;-1.6369e-003
 517.555;   23.65000;-1.6235e-003
 518.563;   23.70000;-1.6110e-003
 519.571;   23.75000;-1.5969e-003
 520.573;   23.80000;-1.5846e-003
 521.594;   23.85000;-1.5724e-003
 522.608;   23.90000;-1.5579e-003
 523.622;   23.95000;-1.5446e-003
 524.639;   24.00000;-1.5333e-003
 525.637;   24.05000;-1.5206e-003
 526.659;   24.10000;-1.5050e-003
 527.657;   24.15000;-1.4945e-003
 528.668;   24.20000;-1.4797e-003
 529.682;   24.25000;-1.4669e-003
 530.684;   24.30000;-1.4539e-003
 531.695;   24.35000;-1.4404e-003
 532.707;   24.40000;-1.4282e-003
 533.714;   24.45000;-1.4147e-003
 534.72;   24.50000;-1.4034e-003
 535.726;   24.55000;-1.3901e-003
 536.726;   24.60000;-1.3775e-003
 537.732;   24.65000;-1.3644e-003
 538.746;   24.70000;-1.3500e-003
 539.756;   24.75000;-1.3387e-003
 540.756;   24.80000;-1.3262e-003
 541.781;   24.85000;-1.3133e-003
 542.774;   24.90000;-1.3002e-003
 543.784;   24.95000;-1.2859e-003
 544.785;   25.00000;-1.2752e-003
 545.791;   25.05000;-1.2608e-003
 546.798;   25.10000;-1.2495e-003
 547.808;   25.15000;-1.2359e-003
 548.803;   25.20000;-1.2226e-003
 549.806;   25.25000;-1.2094e-003
 550.815;   25.30000;-1.1989e-003
 551.822;   25.35000;-1.1852e-003
 552.827;   25.40000;-1.1715e-003
 553.835;   25.45000;-1.1620e-003
 554.829;   25.50000;-1.1493e-003
 555.838;   25.55000;-1.1333e-003
 556.853;   25.60000;-1.1232e-003
 557.844;   25.65000;-1.1096e-003
 558.839;   25.70000;-1.0971e-003
 559.845;   25.75000;-1.0834e-003
 560.851;   25.80000;-1.0731e-003
 561.849;   25.85000;-1.0601e-003
 562.85;   25.90000;-1.0483e-003
 563.845;   25.95000;-1.0341e-003
 564.854;   26.00000;-1.0232e-003
 565.855;   26.05000;-1.0096e-003
 566.844;   26.10000;-9.9950e-004
 567.855;   26.15000;-9.8505e-004
 568.854;   26.20000;-9.7313e-004
 569.853;   26.25000;-9.6055e-004
 570.854;   26.30000;-9.4917e-004
 571.847;   26.35000;-9.3443e-004
 572.846;   26.40000;-9.2417e-004
 573.857;   26.45000;-9.1001e-004
 574.846;   26.50000;-8.9813e-004
 575.855;   26.55000;-8.8605e-004
 576.851;   26.60000;-8.7363e-004
 577.851;   26.65000;-8.6163e-004
 578.845;   26.70000;-8.4905e-004
 579.838;   26.75000;-8.3767e-004
 580.844;   26.80000;-8.2716e-004
 581.833;   26.85000;-8.1466e-004
 582.839;   26.90000;-8.0320e-004
 583.837;   26.95000;-7.8862e-004
 584.834;   27.00000;-7.7774e-004
 585.824;   27.05000;-7.6491e-004
 586.834;   27.10000;-7.5432e-004
 587.828;   27.15000;-7.4157e-004
 588.826;   27.20000;-7.2928e-004
 589.808;   27.25000;-7.1861e-004
 590.816;   27.30000;-7.0536e-004
 591.82;   27.35000;-6.9510e-004
 592.803;   27.40000;-6.8223e-004
 593.795;   27.45000;-6.7039e-004
 594.814;   27.50000;-6.5772e-004
 595.798;   27.55000;-6.4493e-004
 596.801;   27.60000;-6.3713e-004
 597.795;   27.65000;-6.2284e-004
 598.793;   27.70000;-6.1076e-004
 599.786;   27.75000;-5.9934e-004
 600.785;   27.80000;-5.8754e-004
 601.775;   27.85000;-5.7467e-004
 602.773;   27.90000;-5.6333e-004
 603.769;   27.95000;-5.5523e-004
 604.756;   28.00000;-5.4099e-004
 605.76;   28.05000;-5.3057e-004
 606.763;   28.10000;-5.1836e-004
 607.752;   28.15000;-5.0511e-004
 608.741;   28.20000;-4.9693e-004
 609.726;   28.25000;-4.8164e-004
 610.746;   28.30000;-4.7284e-004
 611.737;   28.35000;-4.5880e-004
 612.724;   28.40000;-4.5012e-004
 613.72;   28.45000;-4.3708e-004
 614.705;   28.50000;-4.2683e-004
 615.698;   28.55000;-4.1445e-004
 616.688;   28.60000;-4.0299e-004
 617.69;   28.65000;-3.9294e-004
 618.683;   28.70000;-3.7928e-004
 619.669;   28.75000;-3.6906e-004
 620.665;   28.80000;-3.5768e-004
 621.665;   28.85000;-3.4780e-004
 622.656;   28.90000;-3.3455e-004
 623.655;   28.95000;-3.2201e-004
 624.652;   29.00000;-3.1424e-004
 625.634;   29.05000;-3.0087e-004
 626.637;   29.10000;-2.8999e-004
 627.636;   29.15000;-2.7890e-004
 628.639;   29.20000;-2.6757e-004
 629.63;   29.25000;-2.5594e-004
 630.608;   29.30000;-2.4564e-004
 631.618;   29.35000;-2.3617e-004
 632.601;   29.40000;-2.2346e-004
 633.596;   29.45000;-2.1308e-004
 634.592;   29.50000;-2.0291e-004
 635.594;   29.55000;-1.9032e-004
 636.577;   29.60000;-1.7919e-004
 637.559;   29.65000;-1.6873e-004
 638.566;   29.70000;-1.5993e-004
 639.547;   29.75000;-1.4668e-004
 640.543;   29.80000;-1.3663e-004
 641.53;   29.85000;-1.2471e-004
 642.536;   29.90000;-1.1507e-004
 643.523;   29.95000;-1.0839e-004
 644.517;   30.00000;-9.1777e-005
 645.511;   30.05000;-8.2932e-005
 646.497;   30.10000;-7.0972e-005
 647.487;   30.15000;-5.9178e-005
 648.481;   30.20000;-4.8007e-005
 649.48;   30.25000;-3.8621e-005
 650.47;   30.30000;-2.8073e-005
 651.467;   30.35000;-1.5656e-005
 652.447;   30.40000;-6.4784e-006
 653.462;   30.45000; 4.9419e-006
 654.448;   30.50000; 1.5324e-005
 655.428;   30.55000; 2.6038e-005
 656.431;   30.60000; 3.8746e-005
 657.406;   30.65000; 5.0789e-005
 658.407;   30.70000; 5.9759e-005
 659.4;   30.75000; 7.0889e-005
 660.399;   30.80000; 7.9693e-005
 661.391;   30.85000; 9.2234e-005
 662.378;   30.90000; 1.0012e-004
 663.358;   30.95000; 1.1254e-004
 664.365;   31.00000; 1.2413e-004
 665.354;   31.05000; 1.3281e-004
 666.337;   31.10000; 1.4311e-004
 667.336;   31.15000; 1.5370e-004
 668.328;   31.20000; 1.6798e-004
 669.326;   31.25000; 1.7787e-004
 670.306;   31.30000; 1.8733e-004
 671.308;   31.35000; 1.9751e-004
 672.297;   31.40000; 2.0702e-004
 673.28;   31.45000; 2.1898e-004
 674.276;   31.50000; 2.2969e-004
 675.272;   31.55000; 2.3684e-004
 676.279;   31.60000; 2.4896e-004
 677.263;   31.65000; 2.6146e-004
 678.254;   31.70000; 2.7313e-004
 679.244;   31.75000; 2.8119e-004
 680.241;   31.80000; 2.9145e-004
 681.237;   31.85000; 3.0291e-004
 682.222;   31.90000; 3.1429e-004
 683.22;   31.95000; 3.2695e-004
 684.202;   32.00000; 3.3443e-004
 685.204;   32.05000; 3.4701e-004
 686.184;   32.10000; 3.5556e-004
 687.179;   32.15000; 3.6885e-004
 688.177;   32.20000; 3.7861e-004
 689.175;   32.25000; 3.8675e-004
 690.155;   32.30000; 4.0029e-004
 691.147;   32.35000; 4.1080e-004
 692.136;   32.40000; 4.2147e-004
 693.135;   32.45000; 4.2978e-004
 694.131;   32.50000; 4.4199e-004
 695.121;   32.55000; 4.5162e-004
 696.112;   32.60000; 4.6424e-004
 697.112;   32.65000; 4.7562e-004
 698.091;   32.70000; 4.8463e-004
 699.073;   32.75000; 4.9676e-004
 700.075;   32.80000; 5.0743e-004
 701.072;   32.85000; 5.1906e-004
 702.057;   32.90000; 5.2886e-004
 703.05;   32.95000; 5.3841e-004
 704.04;   33.00000; 5.5112e-004
 705.031;   33.05000; 5.6051e-004
 706.026;   33.10000; 5.7089e-004
 707.018;   33.15000; 5.8181e-004
 708.009;   33.20000; 5.9369e-004
 708.999;   33.25000; 6.0498e-004
 709.987;   33.30000; 6.1524e-004
 710.982;   33.35000; 6.2670e-004
 711.988;   33.40000; 6.3783e-004
 712.963;   33.45000; 6.4614e-004
 713.958;   33.50000; 6.5557e-004
 714.962;   33.55000; 6.6960e-004
 715.933;   33.60000; 6.7849e-004
 716.932;   33.65000; 6.9099e-004
 717.925;   33.70000; 7.0083e-004
 718.929;   33.75000; 7.1204e-004
 719.904;   33.80000; 7.2213e-004
 720.908;   33.85000; 7.3223e-004
 721.898;   33.90000; 7.4203e-004
 722.88;   33.95000; 7.4992e-004
 723.873;   34.00000; 7.6516e-004
 724.87;   34.05000; 7.7504e-004
 725.865;   34.10000; 7.8397e-004
 726.856;   34.15000; 7.9307e-004
 727.845;   34.20000; 8.0631e-004
 728.836;   34.25000; 8.1491e-004
 729.827;   34.30000; 8.2978e-004
 730.831;   34.35000; 8.3920e-004
 731.83;   34.40000; 8.5050e-004
 732.812;   34.45000; 8.6092e-004
 733.805;   34.50000; 8.7043e-004
 734.8;   34.55000; 8.8032e-004
 735.794;   34.60000; 8.9207e-004
 736.784;   34.65000; 9.0361e-004
 737.777;   34.70000; 9.1155e-004
 738.76;   34.75000; 9.2342e-004
 739.769;   34.80000; 9.3468e-004
 740.752;   34.85000; 9.4593e-004
 741.736;   34.90000; 9.5669e-004
 742.744;   34.95000; 9.6582e-004
 743.725;   35.00000; 9.7604e-004
 744.725;   35.05000; 9.8875e-004
 745.713;   35.10000; 9.9738e-004
 746.707;   35.15000; 1.0079e-003
 747.691;   35.20000; 1.0193e-003
 748.683;   35.25000; 1.0321e-003
 749.672;   35.30000; 1.0425e-003
 750.669;   35.35000; 1.0504e-003
 751.666;   35.40000; 1.0618e-003
 752.649;   35.45000; 1.0728e-003
 753.644;   35.50000; 1.0829e-003
 754.635;   35.55000; 1.0929e-003
 755.62;   35.60000; 1.1030e-003
 756.615;   35.65000; 1.1145e-003
 757.613;   35.70000; 1.1249e-003
 758.617;   35.75000; 1.1307e-003
 759.603;   35.80000; 1.1450e-003
 760.581;   35.85000; 1.1574e-003
 761.583;   35.90000; 1.1684e-003
 762.577;   35.95000; 1.1780e-003
 763.574;   36.00000; 1.1904e-003
 764.564;   36.05000; 1.1993e-003
 765.56;   36.10000; 1.2089e-003
 766.555;   36.15000; 1.2176e-003
 767.541;   36.20000; 1.2309e-003
 768.522;   36.25000; 1.2410e-003
 769.52;   36.30000; 1.2538e-003
 770.517;   36.35000; 1.2608e-003
 771.513;   36.40000; 1.2706e-003
 772.498;   36.45000; 1.2849e-003
 773.489;   36.50000; 1.2937e-003
 774.487;   36.55000; 1.3047e-003
 775.479;   36.60000; 1.3160e-003
 776.473;   36.65000; 1.3252e-003
 777.464;   36.70000; 1.3316e-003
 778.462;   36.75000; 1.3437e-003
 779.453;   36.80000; 1.3593e-003
 780.452;   36.85000; 1.3676e-003
 781.434;   36.90000; 1.3804e-003
 782.419;   36.95000; 1.3880e-003
 783.412;   37.00000; 1.4004e-003
 784.426;   37.05000; 1.4101e-003
 785.404;   37.10000; 1.4203e-003
 786.4;   37.15000; 1.4277e-003
 787.406;   37.20000; 1.4442e-003
 788.39;   37.25000; 1.4545e-003
 789.387;   37.30000; 1.4623e-003
 790.37;   37.35000; 1.4747e-003
 791.377;   37.40000; 1.4837e-003
 792.362;   37.45000; 1.4971e-003
 793.357;   37.50000; 1.5043e-003
 794.349;   37.55000; 1.5206e-003
 795.345;   37.60000; 1.5291e-003
 796.344;   37.65000; 1.5416e-003
 797.334;   37.70000; 1.5475e-003
 798.321;   37.75000; 1.5586e-003
 799.316;   37.80000; 1.5723e-003
 800.306;   37.85000; 1.5835e-003
 801.306;   37.90000; 1.5913e-003
 802.288;   37.95000; 1.6041e-003
 803.284;   38.00000; 1.6154e-003
 804.28;   38.05000; 1.6277e-003
 805.271;   38.10000; 1.6379e-003
 806.27;   38.15000; 1.6475e-003
 807.27;   38.20000; 1.6599e-003
 808.268;   38.25000; 1.6706e-003
 809.262;   38.30000; 1.6772e-003
 810.257;   38.35000; 1.6890e-003
 811.252;   38.40000; 1.7011e-003
 812.243;   38.45000; 1.7101e-003
 813.221;   38.50000; 1.7228e-003
 814.218;   38.55000; 1.7336e-003
 815.215;   38.60000; 1.7453e-003
 816.206;   38.65000; 1.7550e-003
 817.212;   38.70000; 1.7652e-003
 818.203;   38.75000; 1.7783e-003
 819.199;   38.80000; 1.7889e-003
 820.185;   38.85000; 1.7953e-003
 821.177;   38.90000; 1.8096e-003
 822.166;   38.95000; 1.8168e-003
 823.169;   39.00000; 1.8287e-003
 824.155;   39.05000; 1.8429e-003
 825.153;   39.10000; 1.8542e-003
 826.134;   39.15000; 1.8647e-003
 827.136;   39.20000; 1.8745e-003
 828.12;   39.25000; 1.8818e-003
 829.105;   39.30000; 1.8963e-003
 830.115;   39.35000; 1.9089e-003
 831.114;   39.40000; 1.9132e-003
 832.112;   39.45000; 1.9278e-003
 833.098;   39.50000; 1.9383e-003
 834.094;   39.55000; 1.9503e-003
 835.076;   39.60000; 1.9608e-003
 836.078;   39.65000; 1.9730e-003
 837.085;   39.70000; 1.9840e-003
 838.064;   39.75000; 1.9949e-003
 839.059;   39.80000; 2.0059e-003
 840.058;   39.85000; 2.0176e-003
 841.045;   39.90000; 2.0263e-003
 842.037;   39.95000; 2.0350e-003
 843.037;   40.00000; 2.0484e-003
 844.03;   40.05000; 2.0609e-003
 845.01;   40.10000; 2.0719e-003
 846.012;   40.15000; 2.0828e-003
 847.01;   40.20000; 2.0927e-003
 847.999;   40.25000; 2.1034e-003
 848.995;   40.30000; 2.1154e-003
 849.987;   40.35000; 2.1218e-003
 850.977;   40.40000; 2.1357e-003
 851.971;   40.45000; 2.1476e-003
 852.979;   40.50000; 2.1575e-003
 853.949;   40.55000; 2.1695e-003
 854.948;   40.60000; 2.1808e-003
 855.939;   40.65000; 2.1921e-003
 856.935;   40.70000; 2.1967e-003
 857.927;   40.75000; 2.2115e-003
 858.928;   40.80000; 2.2226e-003
 859.919;   40.85000; 2.2341e-003
 860.922;   40.90000; 2.2440e-003
 861.906;   40.95000; 2.2547e-003
 862.904;   41.00000; 2.2623e-003
 863.9;   41.05000; 2.2772e-003
 864.882;   41.10000; 2.2840e-003
 865.877;   41.15000; 2.2963e-003
 866.875;   41.20000; 2.3096e-003
 867.855;   41.25000; 2.3173e-003
 868.857;   41.30000; 2.3268e-003
 869.852;   41.35000; 2.3379e-003
 870.844;   41.40000; 2.3474e-003
 871.838;   41.45000; 2.3622e-003
 872.821;   41.50000; 2.3738e-003
 873.835;   41.55000; 2.3850e-003
 874.815;   41.60000; 2.3934e-003
 875.808;   41.65000; 2.4018e-003
 876.808;   41.70000; 2.4173e-003
 877.816;   41.75000; 2.4269e-003
 878.789;   41.80000; 2.4364e-003
 879.789;   41.85000; 2.4452e-003
 880.776;   41.90000; 2.4595e-003
 881.773;   41.95000; 2.4712e-003
 882.76;   42.00000; 2.4794e-003
 883.75;   42.05000; 2.4872e-003
 884.748;   42.10000; 2.5009e-003
 885.741;   42.15000; 2.5133e-003
 886.736;   42.20000; 2.5243e-003
 887.723;   42.25000; 2.5352e-003
 888.721;   42.30000; 2.5465e-003
 889.722;   42.35000; 2.5559e-003
 890.713;   42.40000; 2.5648e-003
 891.701;   42.45000; 2.5791e-003
 892.7;   42.50000; 2.5930e-003
 893.69;   42.55000; 2.6000e-003
 894.694;   42.60000; 2.6101e-003
 895.687;   42.65000; 2.6152e-003
 896.689;   42.70000; 2.6330e-003
 897.682;   42.75000; 2.6458e-003
 898.679;   42.80000; 2.6579e-003
 899.673;   42.85000; 2.6656e-003
 900.653;   42.90000; 2.6798e-003
 901.658;   42.95000; 2.6906e-003
 902.651;   43.00000; 2.6985e-003
 903.647;   43.05000; 2.7099e-003
 904.638;   43.10000; 2.7206e-003
 905.627;   43.15000; 2.7338e-003
 906.608;   43.20000; 2.7424e-003
 907.617;   43.25000; 2.7534e-003
 908.601;   43.30000; 2.7638e-003
 909.61;   43.35000; 2.7772e-003
 910.59;   43.40000; 2.7852e-003
 911.582;   43.45000; 2.7978e-003
 912.578;   43.50000; 2.8058e-003
 913.587;   43.55000; 2.8187e-003
 914.567;   43.60000; 2.8305e-003
 915.563;   43.65000; 2.8397e-003
 916.57;   43.70000; 2.8476e-003
 917.539;   43.75000; 2.8579e-003
 918.541;   43.80000; 2.8705e-003
 919.529;   43.85000; 2.8802e-003
 920.528;   43.90000; 2.8912e-003
 921.519;   43.95000; 2.9046e-003
 922.516;   44.00000; 2.9162e-003
 923.511;   44.05000; 2.9277e-003
 924.505;   44.10000; 2.9380e-003
 925.496;   44.15000; 2.9452e-003
 926.475;   44.20000; 2.9591e-003
 927.477;   44.25000; 2.9702e-003
 928.467;   44.30000; 2.9804e-003
 929.467;   44.35000; 2.9914e-003
 930.466;   44.40000; 2.9982e-003
 931.458;   44.45000; 3.0137e-003
 932.445;   44.50000; 3.0245e-003
 933.44;   44.55000; 3.0333e-003
 934.437;   44.60000; 3.0456e-003
 935.428;   44.65000; 3.0546e-003
 936.415;   44.70000; 3.0653e-003
 937.423;   44.75000; 3.0780e-003
 938.408;   44.80000; 3.0865e-003
 939.409;   44.85000; 3.1010e-003
 940.383;   44.90000; 3.1106e-003
 941.394;   44.95000; 3.1168e-003
 942.375;   45.00000; 3.1315e-003
 943.36;   45.05000; 3.1384e-003
 944.363;   45.10000; 3.1510e-003
 945.358;   45.15000; 3.1619e-003
 946.355;   45.20000; 3.1718e-003
 947.335;   45.25000; 3.1847e-003
 948.339;   45.30000; 3.1942e-003
 949.317;   45.35000; 3.2051e-003
 950.305;   45.40000; 3.2175e-003
 951.302;   45.45000; 3.2277e-003
 952.29;   45.50000; 3.2385e-003
 953.289;   45.55000; 3.2507e-003
 954.278;   45.60000; 3.2593e-003
 955.279;   45.65000; 3.2677e-003
 956.28;   45.70000; 3.2750e-003
 957.266;   45.75000; 3.2902e-003
 958.262;   45.80000; 3.3036e-003
 959.241;   45.85000; 3.3142e-003
 960.235;   45.90000; 3.3240e-003
 961.236;   45.95000; 3.3344e-003
 962.223;   46.00000; 3.3478e-003
 963.216;   46.05000; 3.3571e-003
 964.214;   46.10000; 3.3657e-003
 965.204;   46.15000; 3.3774e-003
 966.206;   46.20000; 3.3909e-003
 967.2;   46.25000; 3.4008e-003
 968.2;   46.30000; 3.4059e-003
 969.183;   46.35000; 3.4171e-003
 970.178;   46.40000; 3.4294e-003
 971.188;   46.45000; 3.4397e-003
 972.158;   46.50000; 3.4504e-003
 973.149;   46.55000; 3.4619e-003
 974.144;   46.60000; 3.4729e-003
 975.154;   46.65000; 3.4792e-003
 976.129;   46.70000; 3.4927e-003
 977.148;   46.75000; 3.5042e-003
 978.128;   46.80000; 3.5151e-003
 979.135;   46.85000; 3.5257e-003
 980.117;   46.90000; 3.5336e-003
 981.105;   46.95000; 3.5464e-003
 982.112;   47.00000; 3.5574e-003
 983.096;   47.05000; 3.5603e-003
 984.089;   47.10000; 3.5778e-003
 985.084;   47.15000; 3.5854e-003
 986.085;   47.20000; 3.5984e-003
 987.07;   47.25000; 3.6072e-003
 988.067;   47.30000; 3.6110e-003
 989.061;   47.35000; 3.6295e-003
 990.056;   47.40000; 3.6395e-003
 991.055;   47.45000; 3.6522e-003
 992.043;   47.50000; 3.6597e-003
 993.038;   47.55000; 3.6698e-003
 994.03;   47.60000; 3.6795e-003
 995.023;   47.65000; 3.6890e-003
 996.021;   47.70000; 3.7019e-003
 997.008;   47.75000; 3.7132e-003
 998.014;   47.80000; 3.7241e-003
 999.011;   47.85000; 3.7311e-003
 999.989;   47.90000; 3.7405e-003
1001.01;   47.95000; 3.7525e-003
1001.98;   48.00000; 3.7591e-003
1002.97;   48.05000; 3.7672e-003
1003.97;   48.10000; 3.7842e-003
1004.97;   48.15000; 3.7932e-003
1005.96;   48.20000; 3.7988e-003
1006.95;   48.25000; 3.8150e-003
1007.95;   48.30000; 3.8170e-003
1008.95;   48.35000; 3.8302e-003
1009.93;   48.40000; 3.8441e-003
1010.94;   48.45000; 3.8542e-003
1011.94;   48.50000; 3.8633e-003
1012.92;   48.55000; 3.8742e-003
1013.92;   48.60000; 3.8830e-003
1014.9;   48.65000; 3.8948e-003
1015.9;   48.70000; 3.9072e-003
1016.9;   48.75000; 3.9175e-003
1017.9;   48.80000; 3.9248e-003
1018.89;   48.85000; 3.9405e-003
1019.9;   48.90000; 3.9501e-003
1020.88;   48.95000; 3.9573e-003
1021.88;   49.00000; 3.9669e-003
1022.89;   49.05000; 3.9775e-003
1023.88;   49.10000; 3.9869e-003
1024.87;   49.15000; 3.9955e-003
1025.87;   49.20000; 4.0060e-003
1026.87;   49.25000; 4.0147e-003
1027.85;   49.30000; 4.0241e-003
1028.85;   49.35000; 4.0370e-003
1029.84;   49.40000; 4.0439e-003
1030.83;   49.45000; 4.0522e-003
1031.82;   49.50000; 4.0663e-003
1032.82;   49.55000; 4.0753e-003
1033.82;   49.60000; 4.0884e-003
1034.8;   49.65000; 4.0961e-003
1035.8;   49.70000; 4.1060e-003
1036.8;   49.75000; 4.1188e-003
1037.79;   49.80000; 4.1262e-003
1038.79;   49.85000; 4.1376e-003
1039.79;   49.90000; 4.1465e-003
1040.78;   49.95000; 4.1539e-003
1041.76;   50.00000; 4.1656e-003
1042.76;   50.05000; 4.1762e-003
1043.76;   50.10000; 4.1863e-003
1044.75;   50.15000; 4.1931e-003
1045.74;   50.20000; 4.2042e-003
1046.74;   50.25000; 4.2117e-003
1047.73;   50.30000; 4.2230e-003
1048.74;   50.35000; 4.2322e-003
1049.72;   50.40000; 4.2423e-003
1050.72;   50.45000; 4.2491e-003
1051.7;   50.50000; 4.2626e-003
1052.71;   50.55000; 4.2721e-003
1053.7;   50.60000; 4.2793e-003
1054.7;   50.65000; 4.2907e-003
1055.69;   50.70000; 4.2993e-003
1056.69;   50.75000; 4.3083e-003
1057.69;   50.80000; 4.3184e-003
1058.66;   50.85000; 4.3229e-003
1059.68;   50.90000; 4.3385e-003
1060.66;   50.95000; 4.3463e-003
1061.66;   51.00000; 4.3563e-003
1062.65;   51.05000; 4.3675e-003
1063.64;   51.10000; 4.3759e-003
1064.65;   51.15000; 4.3837e-003
1065.65;   51.20000; 4.3898e-003
1066.63;   51.25000; 4.4027e-003
1067.62;   51.30000; 4.4106e-003
1068.62;   51.35000; 4.4206e-003
1069.6;   51.40000; 4.4302e-003
1070.61;   51.45000; 4.4324e-003
1071.6;   51.50000; 4.4490e-003
1072.61;   51.55000; 4.4581e-003
1073.59;   51.60000; 4.4675e-003
1074.59;   51.65000; 4.4709e-003
1075.58;   51.70000; 4.4851e-003
1076.58;   51.75000; 4.4969e-003
1077.57;   51.80000; 4.5026e-003
1078.59;   51.85000; 4.5155e-003
1079.56;   51.90000; 4.5247e-003
1080.54;   51.95000; 4.5318e-003
1081.55;   52.00000; 4.5418e-003
1082.54;   52.05000; 4.5522e-003
1083.55;   52.10000; 4.5590e-003
1084.55;   52.15000; 4.5706e-003
1085.53;   52.20000; 4.5793e-003
1086.54;   52.25000; 4.5890e-003
1087.52;   52.30000; 4.5955e-003
1088.52;   52.35000; 4.6072e-003
1089.51;   52.40000; 4.6144e-003
1090.51;   52.45000; 4.6247e-003
1091.51;   52.50000; 4.6327e-003
1092.49;   52.55000; 4.6402e-003
1093.5;   52.60000; 4.6511e-003
1094.49;   52.65000; 4.6538e-003
1095.48;   52.70000; 4.6676e-003
1096.49;   52.75000; 4.6771e-003
1097.49;   52.80000; 4.6897e-003
1098.47;   52.85000; 4.6968e-003
1099.47;   52.90000; 4.7081e-003
1100.47;   52.95000; 4.7145e-003
1101.46;   53.00000; 4.7259e-003
1102.46;   53.05000; 4.7311e-003
1103.46;   53.10000; 4.7423e-003
1104.45;   53.15000; 4.7544e-003
1105.44;   53.20000; 4.7578e-003
1106.43;   53.25000; 4.7738e-003
1107.43;   53.30000; 4.7769e-003
1108.43;   53.35000; 4.7914e-003
1109.43;   53.40000; 4.7986e-003
1110.42;   53.45000; 4.8119e-003
1111.43;   53.50000; 4.8209e-003
1112.41;   53.55000; 4.8274e-003
1113.41;   53.60000; 4.8410e-003
1114.4;   53.65000; 4.8512e-003
1115.39;   53.70000; 4.8566e-003
1116.39;   53.75000; 4.8625e-003
1117.39;   53.80000; 4.8735e-003
1118.39;   53.85000; 4.8873e-003
1119.38;   53.90000; 4.8958e-003
1120.38;   53.95000; 4.8993e-003
1121.38;   54.00000; 4.9151e-003
1122.37;   54.05000; 4.9245e-003
1123.38;   54.10000; 4.9359e-003
1124.38;   54.15000; 4.9409e-003
1125.35;   54.20000; 4.9512e-003
1126.35;   54.25000; 4.9621e-003
1127.34;   54.30000; 4.9713e-003
1128.36;   54.35000; 4.9750e-003
1129.35;   54.40000; 4.9928e-003
1130.36;   54.45000; 5.0012e-003
1131.34;   54.50000; 5.0088e-003
1132.34;   54.55000; 5.0201e-003
1133.32;   54.60000; 5.0278e-003
1134.32;   54.65000; 5.0413e-003
1135.31;   54.70000; 5.0484e-003
1136.31;   54.75000; 5.0583e-003
1137.3;   54.80000; 5.0694e-003
1138.29;   54.85000; 5.0784e-003
1139.29;   54.90000; 5.0878e-003
1140.28;   54.95000; 5.0999e-003
1141.26;   55.00000; 5.1125e-003
1142.26;   55.05000; 5.1199e-003
1143.27;   55.10000; 5.1262e-003
1144.26;   55.15000; 5.1414e-003
1145.26;   55.20000; 5.1548e-003
1146.26;   55.25000; 5.1653e-003
1147.26;   55.30000; 5.1737e-003
1148.24;   55.35000; 5.1849e-003
1149.25;   55.40000; 5.1953e-003
1150.25;   55.45000; 5.2064e-003
1151.21;   55.50000; 5.2176e-003
1152.23;   55.55000; 5.2250e-003
1153.23;   55.60000; 5.2385e-003
1154.22;   55.65000; 5.2482e-003
1155.22;   55.70000; 5.2588e-003
1156.22;   55.75000; 5.2617e-003
1157.21;   55.80000; 5.2799e-003
1158.2;   55.85000; 5.2873e-003
1159.2;   55.90000; 5.2984e-003
1160.21;   55.95000; 5.3088e-003
1161.19;   56.00000; 5.3188e-003
1162.19;   56.05000; 5.3278e-003
1163.19;   56.10000; 5.3329e-003
1164.19;   56.15000; 5.3430e-003
1165.17;   56.20000; 5.3570e-003
1166.18;   56.25000; 5.3679e-003
1167.18;   56.30000; 5.3779e-003
1168.17;   56.35000; 5.3842e-003
1169.17;   56.40000; 5.3935e-003
1170.16;   56.45000; 5.4048e-003
1171.16;   56.50000; 5.4145e-003
1172.17;   56.55000; 5.4204e-003
1173.17;   56.60000; 5.4346e-003
1174.16;   56.65000; 5.4423e-003
1175.16;   56.70000; 5.4479e-003
1176.14;   56.75000; 5.4615e-003
1177.13;   56.80000; 5.4727e-003
1178.14;   56.85000; 5.4817e-003
1179.13;   56.90000; 5.4900e-003
1180.13;   56.95000; 5.4932e-003
1181.15;   57.00000; 5.5064e-003
1182.13;   57.05000; 5.5125e-003
1183.13;   57.10000; 5.5236e-003
1184.12;   57.15000; 5.5356e-003
1185.11;   57.20000; 5.5421e-003
1186.12;   57.25000; 5.5529e-003
1187.1;   57.30000; 5.5632e-003
1188.11;   57.35000; 5.5724e-003
1189.11;   57.40000; 5.5781e-003
1190.11;   57.45000; 5.5932e-003
1191.09;   57.50000; 5.6025e-003
1192.09;   57.55000; 5.6099e-003
1193.1;   57.60000; 5.6196e-003
1194.08;   57.65000; 5.6231e-003
1195.08;   57.70000; 5.6353e-003
1196.08;   57.75000; 5.6457e-003
1197.08;   57.80000; 5.6552e-003
1198.08;   57.85000; 5.6630e-003
1199.08;   57.90000; 5.6753e-003
1200.1;   57.95000; 5.6836e-003
1201.06;   58.00000; 5.6873e-003
1202.07;   58.05000; 5.7000e-003
1203.07;   58.10000; 5.7050e-003
1204.06;   58.15000; 5.7126e-003
1205.06;   58.20000; 5.7268e-003
1206.06;   58.25000; 5.7308e-003
1207.06;   58.30000; 5.7451e-003
1208.04;   58.35000; 5.7491e-003
1209.06;   58.40000; 5.7599e-003
1210.03;   58.45000; 5.7675e-003
1211.04;   58.50000; 5.7760e-003
1212.04;   58.55000; 5.7794e-003
1213.03;   58.60000; 5.7975e-003
1214.04;   58.65000; 5.8052e-003
1215.03;   58.70000; 5.8124e-003
1216.04;   58.75000; 5.8198e-003
1217.02;   58.80000; 5.8270e-003
1218.02;   58.85000; 5.8384e-003
1219.02;   58.90000; 5.8483e-003
1220.02;   58.95000; 5.8521e-003
1221.02;   59.00000; 5.8647e-003
1222.01;   59.05000; 5.8687e-003
1223.02;   59.10000; 5.8822e-003
1224.01;   59.15000; 5.8900e-003
1225;   59.20000; 5.8974e-003
1226;   59.25000; 5.9066e-003
1226.98;   59.30000; 5.9166e-003
1227.99;   59.35000; 5.9244e-003
1229;   59.40000; 5.9329e-003
1230.01;   59.45000; 5.9444e-003
1230.99;   59.50000; 5.9444e-003
1231.97;   59.55000; 5.9601e-003
1232.98;   59.60000; 5.9695e-003
1233.97;   59.65000; 5.9734e-003
1234.97;   59.70000; 5.9835e-003
1235.98;   59.75000; 5.9935e-003
1236.97;   59.80000; 6.0004e-003
1237.98;   59.85000; 6.0078e-003
1238.97;   59.90000; 6.0158e-003
1239.98;   59.95000; 6.0262e-003
1240.96;   60.00000; 6.0364e-003
1241.97;   60.05000; 6.0417e-003
1242.96;   60.10000; 6.0473e-003
1243.95;   60.15000; 6.0565e-003
1244.96;   60.20000; 6.0674e-003
1245.95;   60.25000; 6.0760e-003
1246.96;   60.30000; 6.0826e-003
1247.94;   60.35000; 6.0919e-003
1248.94;   60.40000; 6.1011e-003
1249.94;   60.45000; 6.1096e-003
1250.95;   60.50000; 6.1169e-003
1251.94;   60.55000; 6.1240e-003
1252.94;   60.60000; 6.1317e-003
1253.94;   60.65000; 6.1388e-003
1254.92;   60.70000; 6.1478e-003
1255.92;   60.75000; 6.1563e-003
1256.93;   60.80000; 6.1644e-003
1257.93;   60.85000; 6.1704e-003
1258.92;   60.90000; 6.1803e-003
1259.93;   60.95000; 6.1869e-003
1260.91;   61.00000; 6.1930e-003
1261.93;   61.05000; 6.2008e-003
1262.92;   61.10000; 6.2095e-003
1263.91;   61.15000; 6.2157e-003
1264.92;   61.20000; 6.2213e-003
1265.92;   61.25000; 6.2279e-003
1266.9;   61.30000; 6.2417e-003
1267.9;   61.35000; 6.2468e-003
1268.92;   61.40000; 6.2581e-003
1269.92;   61.45000; 6.2628e-003
1270.89;   61.50000; 6.2653e-003
1271.9;   61.55000; 6.2777e-003
1272.9;   61.60000; 6.2878e-003
1273.9;   61.65000; 6.2939e-003
1274.91;   61.70000; 6.2999e-003
1275.9;   61.75000; 6.3048e-003
1276.91;   61.80000; 6.3144e-003
1277.91;   61.85000; 6.3245e-003
1278.9;   61.90000; 6.3319e-003
1279.89;   61.95000; 6.3365e-003
1280.89;   62.00000; 6.3425e-003
1281.91;   62.05000; 6.3505e-003
1282.89;   62.10000; 6.3538e-003
1283.89;   62.15000; 6.3660e-003
1284.89;   62.20000; 6.3719e-003
1285.89;   62.25000; 6.3792e-003
1286.87;   62.30000; 6.3859e-003
1287.87;   62.35000; 6.3919e-003
1288.88;   62.40000; 6.3948e-003
1289.88;   62.45000; 6.4009e-003
1290.89;   62.50000; 6.4114e-003
1291.88;   62.55000; 6.4094e-003
1292.88;   62.60000; 6.4249e-003
1293.86;   62.65000; 6.4254e-003
1294.86;   62.70000; 6.4372e-003
1295.85;   62.75000; 6.4460e-003
1296.87;   62.80000; 6.4502e-003
1297.86;   62.85000; 6.4549e-003
1298.87;   62.90000; 6.4649e-003
1299.86;   62.95000; 6.4714e-003
1300.86;   63.00000; 6.4766e-003
1301.86;   63.05000; 6.4831e-003
1302.84;   63.10000; 6.4865e-003
1303.84;   63.15000; 6.4884e-003
1304.85;   63.20000; 6.4990e-003
1305.85;   63.25000; 6.4978e-003
1306.85;   63.30000; 6.5126e-003
1307.86;   63.35000; 6.5134e-003
1308.85;   63.40000; 6.5248e-003
1309.85;   63.45000; 6.5274e-003
1310.84;   63.50000; 6.5325e-003
1311.84;   63.55000; 6.5362e-003
1312.84;   63.60000; 6.5471e-003
1313.84;   63.65000; 6.5523e-003
1314.83;   63.70000; 6.5501e-003
1315.82;   63.75000; 6.5621e-003
1316.83;   63.80000; 6.5653e-003
1317.83;   63.85000; 6.5725e-003
1318.83;   63.90000; 6.5728e-003
1319.83;   63.95000; 6.5791e-003
1320.83;   64.00000; 6.5823e-003
1321.84;   64.05000; 6.5879e-003
1322.83;   64.10000; 6.5917e-003
1323.84;   64.15000; 6.5912e-003
1324.82;   64.20000; 6.6008e-003
1325.81;   64.25000; 6.6075e-003
1326.82;   64.30000; 6.6091e-003
1327.82;   64.35000; 6.6124e-003
1328.83;   64.40000; 6.6125e-003
1329.83;   64.45000; 6.6197e-003
1330.84;   64.50000; 6.6238e-003
1331.82;   64.55000; 6.6303e-003
1332.81;   64.60000; 6.6335e-003
1333.81;   64.65000; 6.6353e-003
1334.81;   64.70000; 6.6310e-003
1335.82;   64.75000; 6.6366e-003
1336.81;   64.80000; 6.6434e-003
1337.8;   64.85000; 6.6457e-003
1338.79;   64.90000; 6.6491e-003
1339.79;   64.95000; 6.6538e-003
1340.8;   65.00000; 6.6531e-003
1341.79;   65.05000; 6.6546e-003
1342.79;   65.10000; 6.6589e-003
1343.79;   65.15000; 6.6546e-003
1344.79;   65.20000; 6.6627e-003
1345.8;   65.25000; 6.6628e-003
1346.78;   65.30000; 6.6659e-003
1347.79;   65.35000; 6.6651e-003
1348.78;   65.40000; 6.6705e-003
1349.79;   65.45000; 6.6673e-003
1350.79;   65.50000; 6.6734e-003
1351.77;   65.55000; 6.6751e-003
1352.76;   65.60000; 6.6741e-003
1353.77;   65.65000; 6.6770e-003
1354.77;   65.70000; 6.6745e-003
1355.76;   65.75000; 6.6776e-003
1356.77;   65.80000; 6.6784e-003
1357.78;   65.85000; 6.6768e-003
1358.76;   65.90000; 6.6789e-003
1359.76;   65.95000; 6.6755e-003
1360.76;   66.00000; 6.6729e-003
1361.76;   66.05000; 6.6793e-003
1362.76;   66.10000; 6.6730e-003
1363.76;   66.15000; 6.6756e-003
1364.76;   66.20000; 6.6767e-003
1365.77;   66.25000; 6.6701e-003
1366.75;   66.30000; 6.6711e-003
1367.75;   66.35000; 6.6758e-003
1368.75;   66.40000; 6.6742e-003
1369.74;   66.45000; 6.6703e-003
1370.75;   66.50000; 6.6656e-003
1371.74;   66.55000; 6.6709e-003
1372.75;   66.60000; 6.6660e-003
1373.73;   66.65000; 6.6607e-003
1374.74;   66.70000; 6.6614e-003
1375.74;   66.75000; 6.6539e-003
1376.74;   66.80000; 6.6574e-003
1377.74;   66.85000; 6.6495e-003
1378.75;   66.90000; 6.6492e-003
1379.75;   66.95000; 6.6384e-003
1380.73;   67.00000; 6.6402e-003
1381.74;   67.05000; 6.6405e-003
1382.74;   67.10000; 6.6326e-003
1383.74;   67.15000; 6.6313e-003
1384.75;   67.20000; 6.6261e-003
1385.74;   67.25000; 6.6197e-003
1386.75;   67.30000; 6.6154e-003
1387.73;   67.35000; 6.6105e-003
1388.74;   67.40000; 6.6032e-003
1389.75;   67.45000; 6.6005e-003
1390.74;   67.50000; 6.5885e-003
1391.76;   67.55000; 6.5854e-003
1392.74;   67.60000; 6.5803e-003
1393.73;   67.65000; 6.5683e-003
1394.73;   67.70000; 6.5673e-003
1395.75;   67.75000; 6.5594e-003
1396.74;   67.80000; 6.5472e-003
1397.74;   67.85000; 6.5401e-003
1398.75;   67.90000; 6.5379e-003
1399.74;   67.95000; 6.5280e-003
1400.74;   68.00000; 6.5245e-003
1401.72;   68.05000; 6.5158e-003
1402.74;   68.10000; 6.5073e-003
1403.73;   68.15000; 6.4939e-003
1404.74;   68.20000; 6.4878e-003
1405.74;   68.25000; 6.4732e-003
1406.75;   68.30000; 6.4672e-003
1407.74;   68.35000; 6.4593e-003
1408.73;   68.40000; 6.4528e-003
1409.73;   68.45000; 6.4411e-003
1410.73;   68.50000; 6.4287e-003
1411.74;   68.55000; 6.4226e-003
1412.73;   68.60000; 6.4098e-003
1413.74;   68.65000; 6.3992e-003
1414.72;   68.70000; 6.3814e-003
1415.74;   68.75000; 6.3743e-003
1416.74;   68.80000; 6.3670e-003
1417.74;   68.85000; 6.3539e-003
1418.74;   68.90000; 6.3369e-003
1419.75;   68.95000; 6.3314e-003
1420.75;   69.00000; 6.3171e-003
1421.74;   69.05000; 6.3034e-003
1422.74;   69.10000; 6.2904e-003
1423.74;   69.15000; 6.2826e-003
1424.74;   69.20000; 6.2695e-003
1425.73;   69.25000; 6.2503e-003
1426.74;   69.30000; 6.2406e-003
1427.75;   69.35000; 6.2229e-003
1428.73;   69.40000; 6.2114e-003
1429.73;   69.45000; 6.1963e-003
1430.73;   69.50000; 6.1821e-003
1431.75;   69.55000; 6.1680e-003
1432.74;   69.60000; 6.1464e-003
1433.74;   69.65000; 6.1297e-003
1434.73;   69.70000; 6.1201e-003
1435.74;   69.75000; 6.1035e-003
1436.74;   69.80000; 6.0904e-003
1437.74;   69.85000; 6.0694e-003
1438.74;   69.90000; 6.0530e-003
1439.73;   69.95000; 6.0383e-003
1440.75;   70.00000; 6.0196e-003
1441.76;   70.05000; 5.9987e-003
1442.73;   70.10000; 5.9817e-003
1443.74;   70.15000; 5.9556e-003
1444.74;   70.20000; 5.9384e-003
1445.74;   70.25000; 5.9248e-003
1446.75;   70.30000; 5.9061e-003
1447.76;   70.35000; 5.8815e-003
1448.73;   70.40000; 5.8666e-003
1449.74;   70.45000; 5.8446e-003
1450.35;   70.48000; 5.8314e-003