File: 000403_correction_saphire_10_1350_Air-static.txt
#FILE:                 ;000403_correction_saphire_10_1350_Air-static.cle
#FORMAT:               ;NETZSCH5
#IDENTITY:             ;000403
#DECIMAL:              ;POINT
#SEPARATOR:            ;SEMICOLON
#MTYPE:                ;DIL
#MSUBTYPE:             ;
#INSTRUMENT:           ;NETZSCH DIL 402 C
#PROJECT:              ;
#DATE/TIME:            ;28.06.2021 16:18:24
#CORR. FILE:           ;
#LABORATORY:           ;НМ
#OPERATOR:             ;Орлов Н.
#REMARK:               ;
#SAMPLE:               ;corr_10
#SAMPLE LENGTH /mm:    ;3.010
#MATERIAL:             ;стандартный образец
#MEASMODE:             ;Standard Expansion
#PURGE GAS 1:          ;
#FLOW RATE 1 /(ml/min):;0
#CORR. CODE:           ;000
#RANGE:                ;40.0/10.0(K/мин)/1350.0
#SEGMENT:              ;S1/1

##Temp./°C;Time/min;dL/Lo
  40.46600;0.0000e+000; 0.0000e+000
  40.46400;9.0000e-002;-1.0797e-006
  40.45700;    0.18000;-1.4535e-006
  40.47200;    0.27000;-1.3289e-006
  40.50100;    0.36000;-2.3671e-006
  40.57800;    0.45000;-4.3189e-006
  40.70900;    0.54000;-4.9003e-006
  40.89400;    0.63000;-9.0532e-006
  41.12100;    0.72000;-1.0756e-005
  41.37100;    0.81000;-1.5822e-005
  41.66200;    0.90000;-1.9186e-005
  41.95200;    0.99000;-2.4585e-005
  42.26000;    1.08000;-3.0108e-005
  42.55800;    1.17000;-3.4718e-005
  42.85000;    1.26000;-4.2193e-005
  43.14900;    1.35000;-4.8131e-005
  43.44700;    1.44000;-5.4942e-005
  43.75600;    1.53000;-6.1960e-005
  44.08800;    1.62000;-7.0972e-005
  44.44000;    1.71000;-7.9859e-005
  44.81200;    1.80000;-8.8663e-005
  45.21100;    1.89000;-9.8630e-005
  45.67000;    1.98000;-1.0893e-004
  46.13800;    2.07000;-1.2085e-004
  46.61200;    2.16000;-1.3123e-004
  47.12000;    2.25000;-1.4410e-004
  47.63800;    2.34000;-1.5760e-004
  48.16600;    2.43000;-1.7168e-004
  48.69400;    2.52000;-1.8684e-004
  49.24300;    2.61000;-2.0187e-004
  49.80100;    2.70000;-2.1757e-004
  50.38400;    2.79000;-2.3484e-004
  50.97200;    2.88000;-2.5025e-004
  51.57800;    2.97000;-2.6856e-004
  52.20900;    3.06000;-2.8729e-004
  52.86900;    3.15000;-3.0677e-004
  53.55900;    3.24000;-3.2691e-004
  54.23000;    3.33000;-3.4751e-004
  54.95300;    3.42000;-3.6923e-004
  55.67300;    3.51000;-3.9003e-004
  56.41100;    3.60000;-4.1217e-004
  57.15700;    3.69000;-4.3650e-004
  57.91900;    3.78000;-4.5843e-004
  58.70000;    3.87000;-4.8131e-004
  59.48500;    3.96000;-5.0610e-004
  60.29300;    4.05000;-5.3094e-004
  61.11000;    4.14000;-5.5586e-004
  61.94400;    4.23000;-5.8156e-004
  62.80400;    4.32000;-6.0677e-004
  63.66000;    4.41000;-6.3351e-004
  64.52800;    4.50000;-6.5968e-004
  65.42000;    4.59000;-6.8659e-004
  66.32600;    4.68000;-7.1516e-004
  67.24800;    4.77000;-7.4410e-004
  68.18900;    4.86000;-7.7052e-004
  69.10900;    4.95000;-8.0066e-004
  70.06000;    5.04000;-8.2978e-004
  71.03000;    5.13000;-8.5914e-004
  71.99800;    5.22000;-8.8895e-004
  72.98300;    5.31000;-9.1852e-004
  73.99200;    5.40000;-9.4921e-004
  75.00500;    5.49000;-9.7824e-004
  76.00800;    5.58000;-1.0101e-003
  77.04300;    5.67000;-1.0411e-003
  78.09400;    5.76000;-1.0725e-003
  79.14800;    5.85000;-1.1027e-003
  80.20200;    5.94000;-1.1325e-003
  81.27100;    6.03000;-1.1657e-003
  82.32600;    6.12000;-1.1961e-003
  83.43200;    6.21000;-1.2289e-003
  84.51300;    6.30000;-1.2601e-003
  85.61000;    6.39000;-1.2920e-003
  86.71200;    6.48000;-1.3229e-003
  87.82200;    6.57000;-1.3555e-003
  88.93900;    6.66000;-1.3867e-003
  90.05400;    6.75000;-1.4181e-003
  91.19300;    6.84000;-1.4501e-003
  92.32600;    6.93000;-1.4804e-003
  93.45900;    7.02000;-1.5128e-003
  94.58700;    7.11000;-1.5441e-003
  95.73600;    7.20000;-1.5739e-003
  96.88400;    7.29000;-1.6071e-003
  98.03000;    7.38000;-1.6364e-003
  99.18100;    7.47000;-1.6670e-003
 100.332;    7.56000;-1.6977e-003
 101.489;    7.65000;-1.7287e-003
 102.671;    7.74000;-1.7576e-003
 103.823;    7.83000;-1.7880e-003
 105.003;    7.92000;-1.8191e-003
 106.157;    8.01000;-1.8466e-003
 107.344;    8.10000;-1.8771e-003
 108.522;    8.19000;-1.9066e-003
 109.691;    8.28000;-1.9346e-003
 110.866;    8.37000;-1.9630e-003
 112.053;    8.46000;-1.9908e-003
 113.232;    8.55000;-2.0181e-003
 114.427;    8.64000;-2.0450e-003
 115.604;    8.73000;-2.0711e-003
 116.779;    8.82000;-2.0978e-003
 117.969;    8.91000;-2.1258e-003
 119.156;    9.00000;-2.1507e-003
 120.34;    9.09000;-2.1760e-003
 121.513;    9.18000;-2.2012e-003
 122.698;    9.27000;-2.2250e-003
 123.894;    9.36000;-2.2499e-003
 125.084;    9.45000;-2.2722e-003
 126.279;    9.54000;-2.2942e-003
 127.45;    9.63000;-2.3171e-003
 128.636;    9.72000;-2.3385e-003
 129.805;    9.81000;-2.3613e-003
 130.989;    9.90000;-2.3815e-003
 132.163;    9.99000;-2.4024e-003
 133.337;   10.08000;-2.4221e-003
 134.515;   10.17000;-2.4408e-003
 135.676;   10.26000;-2.4599e-003
 136.85;   10.35000;-2.4777e-003
 138.007;   10.44000;-2.4955e-003
 139.177;   10.53000;-2.5120e-003
 140.329;   10.62000;-2.5286e-003
 141.471;   10.71000;-2.5439e-003
 142.605;   10.80000;-2.5587e-003
 143.728;   10.89000;-2.5743e-003
 144.86;   10.98000;-2.5880e-003
 145.952;   11.07000;-2.6019e-003
 147.054;   11.16000;-2.6137e-003
 148.147;   11.25000;-2.6260e-003
 149.233;   11.34000;-2.6366e-003
 150.309;   11.43000;-2.6472e-003
 151.398;   11.52000;-2.6561e-003
 152.482;   11.61000;-2.6648e-003
 153.549;   11.70000;-2.6738e-003
 154.63;   11.79000;-2.6814e-003
 155.704;   11.88000;-2.6894e-003
 156.774;   11.97000;-2.6951e-003
 157.824;   12.06000;-2.7006e-003
 158.889;   12.15000;-2.7047e-003
 159.94;   12.24000;-2.7105e-003
 161.002;   12.33000;-2.7151e-003
 162.05;   12.42000;-2.7180e-003
 163.094;   12.51000;-2.7212e-003
 164.152;   12.60000;-2.7233e-003
 165.197;   12.69000;-2.7248e-003
 166.229;   12.78000;-2.7278e-003
 167.286;   12.87000;-2.7283e-003
 168.321;   12.96000;-2.7296e-003
 169.345;   13.05000;-2.7292e-003
 170.371;   13.14000;-2.7304e-003
 171.416;   13.23000;-2.7279e-003
 172.447;   13.32000;-2.7259e-003
 173.465;   13.41000;-2.7267e-003
 174.491;   13.50000;-2.7241e-003
 175.515;   13.59000;-2.7223e-003
 176.548;   13.68000;-2.7206e-003
 177.559;   13.77000;-2.7181e-003
 178.571;   13.86000;-2.7142e-003
 179.59;   13.95000;-2.7117e-003
 180.601;   14.04000;-2.7099e-003
 181.608;   14.13000;-2.7053e-003
 182.618;   14.22000;-2.6995e-003
 183.627;   14.31000;-2.6953e-003
 184.615;   14.40000;-2.6900e-003
 185.637;   14.49000;-2.6838e-003
 186.623;   14.58000;-2.6790e-003
 187.629;   14.67000;-2.6727e-003
 188.631;   14.76000;-2.6671e-003
 189.618;   14.85000;-2.6597e-003
 190.612;   14.94000;-2.6542e-003
 191.591;   15.03000;-2.6465e-003
 192.581;   15.12000;-2.6412e-003
 193.571;   15.21000;-2.6337e-003
 194.541;   15.30000;-2.6284e-003
 195.528;   15.39000;-2.6190e-003
 196.496;   15.48000;-2.6110e-003
 197.479;   15.57000;-2.6042e-003
 198.457;   15.66000;-2.5969e-003
 199.437;   15.75000;-2.5892e-003
 200.391;   15.84000;-2.5804e-003
 201.366;   15.93000;-2.5708e-003
 202.329;   16.02000;-2.5626e-003
 203.292;   16.11000;-2.5529e-003
 204.268;   16.20000;-2.5446e-003
 205.225;   16.29000;-2.5362e-003
 206.187;   16.38000;-2.5270e-003
 207.14;   16.47000;-2.5172e-003
 208.077;   16.56000;-2.5067e-003
 209.024;   16.65000;-2.4964e-003
 209.992;   16.74000;-2.4870e-003
 210.939;   16.83000;-2.4770e-003
 211.895;   16.92000;-2.4680e-003
 212.829;   17.01000;-2.4578e-003
 213.764;   17.10000;-2.4463e-003
 214.705;   17.19000;-2.4369e-003
 215.656;   17.28000;-2.4260e-003
 216.587;   17.37000;-2.4142e-003
 217.518;   17.46000;-2.4049e-003
 218.46;   17.55000;-2.3938e-003
 219.396;   17.64000;-2.3819e-003
 220.325;   17.73000;-2.3710e-003
 221.255;   17.82000;-2.3606e-003
 222.178;   17.91000;-2.3505e-003
 223.11;   18.00000;-2.3389e-003
 224.033;   18.09000;-2.3283e-003
 224.948;   18.18000;-2.3169e-003
 225.882;   18.27000;-2.3061e-003
 226.794;   18.36000;-2.2936e-003
 227.716;   18.45000;-2.2818e-003
 228.625;   18.54000;-2.2708e-003
 229.556;   18.63000;-2.2594e-003
 230.466;   18.72000;-2.2467e-003
 231.376;   18.81000;-2.2354e-003
 232.297;   18.90000;-2.2241e-003
 233.208;   18.99000;-2.2115e-003
 234.121;   19.08000;-2.1987e-003
 235.025;   19.17000;-2.1880e-003
 235.946;   19.26000;-2.1765e-003
 236.853;   19.35000;-2.1655e-003
 237.767;   19.44000;-2.1541e-003
 238.671;   19.53000;-2.1420e-003
 239.576;   19.62000;-2.1297e-003
 240.471;   19.71000;-2.1191e-003
 241.381;   19.80000;-2.1067e-003
 242.289;   19.89000;-2.0957e-003
 243.192;   19.98000;-2.0838e-003
 244.099;   20.07000;-2.0717e-003
 245;   20.16000;-2.0601e-003
 245.901;   20.25000;-2.0484e-003
 246.792;   20.34000;-2.0358e-003
 247.701;   20.43000;-2.0248e-003
 248.592;   20.52000;-2.0128e-003
 249.488;   20.61000;-1.9996e-003
 250.378;   20.70000;-1.9873e-003
 251.284;   20.79000;-1.9765e-003
 252.187;   20.88000;-1.9647e-003
 253.076;   20.97000;-1.9525e-003
 253.962;   21.06000;-1.9399e-003
 254.862;   21.15000;-1.9277e-003
 255.752;   21.24000;-1.9166e-003
 256.64;   21.33000;-1.9054e-003
 257.536;   21.42000;-1.8939e-003
 258.429;   21.51000;-1.8836e-003
 259.316;   21.60000;-1.8729e-003
 260.214;   21.69000;-1.8603e-003
 261.106;   21.78000;-1.8494e-003
 261.988;   21.87000;-1.8384e-003
 262.873;   21.96000;-1.8257e-003
 263.774;   22.05000;-1.8169e-003
 264.668;   22.14000;-1.8049e-003
 265.549;   22.23000;-1.7909e-003
 266.447;   22.32000;-1.7821e-003
 267.333;   22.41000;-1.7713e-003
 268.22;   22.50000;-1.7604e-003
 269.103;   22.59000;-1.7494e-003
 269.996;   22.68000;-1.7387e-003
 270.877;   22.77000;-1.7269e-003
 271.768;   22.86000;-1.7161e-003
 272.655;   22.95000;-1.7062e-003
 273.555;   23.04000;-1.6950e-003
 274.434;   23.13000;-1.6843e-003
 275.327;   23.22000;-1.6729e-003
 276.214;   23.31000;-1.6631e-003
 277.093;   23.40000;-1.6532e-003
 277.985;   23.49000;-1.6416e-003
 278.873;   23.58000;-1.6322e-003
 279.759;   23.67000;-1.6207e-003
 280.642;   23.76000;-1.6107e-003
 281.533;   23.85000;-1.5989e-003
 282.415;   23.94000;-1.5902e-003
 283.303;   24.03000;-1.5779e-003
 284.194;   24.12000;-1.5688e-003
 285.08;   24.21000;-1.5572e-003
 285.961;   24.30000;-1.5466e-003
 286.86;   24.39000;-1.5367e-003
 287.735;   24.48000;-1.5271e-003
 288.622;   24.57000;-1.5169e-003
 289.509;   24.66000;-1.5074e-003
 290.398;   24.75000;-1.4968e-003
 291.293;   24.84000;-1.4853e-003
 292.174;   24.93000;-1.4768e-003
 293.061;   25.02000;-1.4671e-003
 293.943;   25.11000;-1.4582e-003
 294.841;   25.20000;-1.4481e-003
 295.729;   25.29000;-1.4377e-003
 296.629;   25.38000;-1.4290e-003
 297.509;   25.47000;-1.4186e-003
 298.39;   25.56000;-1.4110e-003
 299.286;   25.65000;-1.4010e-003
 300.17;   25.74000;-1.3905e-003
 301.063;   25.83000;-1.3809e-003
 301.955;   25.92000;-1.3722e-003
 302.84;   26.01000;-1.3623e-003
 303.733;   26.10000;-1.3529e-003
 304.618;   26.19000;-1.3427e-003
 305.509;   26.28000;-1.3334e-003
 306.397;   26.37000;-1.3246e-003
 307.285;   26.46000;-1.3148e-003
 308.177;   26.55000;-1.3052e-003
 309.081;   26.64000;-1.2971e-003
 309.969;   26.73000;-1.2872e-003
 310.864;   26.82000;-1.2803e-003
 311.739;   26.91000;-1.2702e-003
 312.636;   27.00000;-1.2614e-003
 313.527;   27.09000;-1.2515e-003
 314.419;   27.18000;-1.2438e-003
 315.313;   27.27000;-1.2349e-003
 316.19;   27.36000;-1.2261e-003
 317.086;   27.45000;-1.2159e-003
 317.981;   27.54000;-1.2098e-003
 318.865;   27.63000;-1.2005e-003
 319.749;   27.72000;-1.1926e-003
 320.653;   27.81000;-1.1840e-003
 321.549;   27.90000;-1.1760e-003
 322.443;   27.99000;-1.1673e-003
 323.327;   28.08000;-1.1585e-003
 324.227;   28.17000;-1.1512e-003
 325.111;   28.26000;-1.1431e-003
 326.008;   28.35000;-1.1346e-003
 326.913;   28.44000;-1.1267e-003
 327.798;   28.53000;-1.1181e-003
 328.686;   28.62000;-1.1107e-003
 329.591;   28.71000;-1.1016e-003
 330.477;   28.80000;-1.0932e-003
 331.377;   28.89000;-1.0861e-003
 332.269;   28.98000;-1.0765e-003
 333.157;   29.07000;-1.0695e-003
 334.055;   29.16000;-1.0612e-003
 334.955;   29.25000;-1.0536e-003
 335.848;   29.34000;-1.0454e-003
 336.741;   29.43000;-1.0371e-003
 337.63;   29.52000;-1.0291e-003
 338.531;   29.61000;-1.0208e-003
 339.425;   29.70000;-1.0147e-003
 340.32;   29.79000;-1.0059e-003
 341.21;   29.88000;-9.9734e-004
 342.115;   29.97000;-9.9041e-004
 342.998;   30.06000;-9.8248e-004
 343.902;   30.15000;-9.7604e-004
 344.793;   30.24000;-9.6827e-004
 345.699;   30.33000;-9.6084e-004
 346.583;   30.42000;-9.5295e-004
 347.486;   30.51000;-9.4481e-004
 348.375;   30.60000;-9.3837e-004
 349.273;   30.69000;-9.2932e-004
 350.177;   30.78000;-9.2085e-004
 351.067;   30.87000;-9.1424e-004
 351.956;   30.96000;-9.0698e-004
 352.847;   31.05000;-8.9830e-004
 353.749;   31.14000;-8.9008e-004
 354.642;   31.23000;-8.8310e-004
 355.544;   31.32000;-8.7537e-004
 356.436;   31.41000;-8.6753e-004
 357.337;   31.50000;-8.6076e-004
 358.238;   31.59000;-8.5195e-004
 359.131;   31.68000;-8.4489e-004
 360.026;   31.77000;-8.3783e-004
 360.929;   31.86000;-8.3011e-004
 361.814;   31.95000;-8.2317e-004
 362.716;   32.04000;-8.1624e-004
 363.621;   32.13000;-8.0810e-004
 364.52;   32.22000;-8.0050e-004
 365.407;   32.31000;-7.9228e-004
 366.305;   32.40000;-7.8625e-004
 367.202;   32.49000;-7.7870e-004
 368.106;   32.58000;-7.7139e-004
 368.993;   32.67000;-7.6300e-004
 369.895;   32.76000;-7.5586e-004
 370.79;   32.85000;-7.4988e-004
 371.685;   32.94000;-7.4161e-004
 372.589;   33.03000;-7.3476e-004
 373.492;   33.12000;-7.2641e-004
 374.383;   33.21000;-7.1902e-004
 375.288;   33.30000;-7.1184e-004
 376.182;   33.39000;-7.0473e-004
 377.08;   33.48000;-6.9738e-004
 377.975;   33.57000;-6.8987e-004
 378.872;   33.66000;-6.8160e-004
 379.77;   33.75000;-6.7583e-004
 380.668;   33.84000;-6.6707e-004
 381.564;   33.93000;-6.6051e-004
 382.469;   34.02000;-6.5295e-004
 383.364;   34.11000;-6.4668e-004
 384.266;   34.20000;-6.3883e-004
 385.162;   34.29000;-6.3131e-004
 386.06;   34.38000;-6.2438e-004
 386.956;   34.47000;-6.1723e-004
 387.851;   34.56000;-6.0947e-004
 388.749;   34.65000;-6.0199e-004
 389.653;   34.74000;-5.9510e-004
 390.554;   34.83000;-5.8775e-004
 391.444;   34.92000;-5.8032e-004
 392.346;   35.01000;-5.7255e-004
 393.246;   35.10000;-5.6578e-004
 394.15;   35.19000;-5.5889e-004
 395.049;   35.28000;-5.5158e-004
 395.947;   35.37000;-5.4423e-004
 396.847;   35.46000;-5.3679e-004
 397.749;   35.55000;-5.3065e-004
 398.643;   35.64000;-5.2272e-004
 399.537;   35.73000;-5.1607e-004
 400.444;   35.82000;-5.0909e-004
 401.336;   35.91000;-5.0100e-004
 402.231;   36.00000;-4.9456e-004
 403.14;   36.09000;-4.8696e-004
 404.039;   36.18000;-4.7890e-004
 404.94;   36.27000;-4.7222e-004
 405.843;   36.36000;-4.6628e-004
 406.732;   36.45000;-4.5785e-004
 407.638;   36.54000;-4.5361e-004
 408.531;   36.63000;-4.4626e-004
 409.43;   36.72000;-4.3895e-004
 410.324;   36.81000;-4.3090e-004
 411.233;   36.90000;-4.2475e-004
 412.129;   36.99000;-4.1694e-004
 413.022;   37.08000;-4.0914e-004
 413.92;   37.17000;-4.0253e-004
 414.823;   37.26000;-3.9626e-004
 415.715;   37.35000;-3.8812e-004
 416.618;   37.44000;-3.8164e-004
 417.52;   37.53000;-3.7550e-004
 418.419;   37.62000;-3.6707e-004
 419.318;   37.71000;-3.6096e-004
 420.218;   37.80000;-3.5303e-004
 421.109;   37.89000;-3.4626e-004
 422.013;   37.98000;-3.3945e-004
 422.909;   38.07000;-3.3214e-004
 423.807;   38.16000;-3.2529e-004
 424.706;   38.25000;-3.1732e-004
 425.6;   38.34000;-3.1113e-004
 426.501;   38.43000;-3.0407e-004
 427.402;   38.52000;-2.9805e-004
 428.303;   38.61000;-2.9215e-004
 429.198;   38.70000;-2.8397e-004
 430.096;   38.79000;-2.7608e-004
 430.999;   38.88000;-2.7027e-004
 431.898;   38.97000;-2.6321e-004
 432.804;   39.06000;-2.5615e-004
 433.701;   39.15000;-2.4904e-004
 434.594;   39.24000;-2.4190e-004
 435.494;   39.33000;-2.3447e-004
 436.389;   39.42000;-2.2849e-004
 437.3;   39.51000;-2.2089e-004
 438.192;   39.60000;-2.1503e-004
 439.088;   39.69000;-2.0802e-004
 439.98;   39.78000;-2.0071e-004
 440.893;   39.87000;-1.9381e-004
 441.78;   39.96000;-1.8667e-004
 442.688;   40.05000;-1.8027e-004
 443.583;   40.14000;-1.7367e-004
 444.478;   40.23000;-1.6566e-004
 445.37;   40.32000;-1.5839e-004
 446.279;   40.41000;-1.5096e-004
 447.177;   40.50000;-1.4514e-004
 448.07;   40.59000;-1.3667e-004
 448.975;   40.68000;-1.2994e-004
 449.88;   40.77000;-1.2280e-004
 450.767;   40.86000;-1.1541e-004
 451.67;   40.95000;-1.0909e-004
 452.564;   41.04000;-1.0237e-004
 453.469;   41.13000;-9.3937e-005
 454.363;   41.22000;-8.7791e-005
 455.266;   41.31000;-8.1395e-005
 456.168;   41.40000;-7.4543e-005
 457.066;   41.49000;-6.6902e-005
 457.959;   41.58000;-5.9136e-005
 458.857;   41.67000;-5.3322e-005
 459.756;   41.76000;-4.6636e-005
 460.65;   41.85000;-3.9950e-005
 461.549;   41.94000;-3.2392e-005
 462.447;   42.03000;-2.5249e-005
 463.352;   42.12000;-1.7566e-005
 464.238;   42.21000;-1.0673e-005
 465.136;   42.30000;-2.6578e-006
 466.05;   42.39000; 3.6545e-006
 466.934;   42.48000; 1.1960e-005
 467.844;   42.57000; 1.8812e-005
 468.733;   42.66000; 2.4543e-005
 469.63;   42.75000; 3.3140e-005
 470.531;   42.84000; 4.0365e-005
 471.422;   42.93000; 4.7633e-005
 472.325;   43.02000; 5.4319e-005
 473.215;   43.11000; 6.1462e-005
 474.115;   43.20000; 6.8272e-005
 475.016;   43.29000; 7.5789e-005
 475.91;   43.38000; 8.3513e-005
 476.799;   43.47000; 8.9120e-005
 477.711;   43.56000; 9.9169e-005
 478.612;   43.65000; 1.0569e-004
 479.514;   43.74000; 1.1238e-004
 480.411;   43.83000; 1.1856e-004
 481.291;   43.92000; 1.2529e-004
 482.203;   44.01000; 1.3326e-004
 483.096;   44.10000; 1.3966e-004
 483.996;   44.19000; 1.4655e-004
 484.885;   44.28000; 1.5349e-004
 485.794;   44.37000; 1.6047e-004
 486.693;   44.46000; 1.6736e-004
 487.587;   44.55000; 1.7417e-004
 488.486;   44.64000; 1.8069e-004
 489.381;   44.73000; 1.8816e-004
 490.276;   44.82000; 1.9605e-004
 491.184;   44.91000; 2.0166e-004
 492.074;   45.00000; 2.0939e-004
 492.971;   45.09000; 2.1620e-004
 493.867;   45.18000; 2.2272e-004
 494.775;   45.27000; 2.2919e-004
 495.665;   45.36000; 2.3667e-004
 496.561;   45.45000; 2.4286e-004
 497.469;   45.54000; 2.4950e-004
 498.359;   45.63000; 2.5615e-004
 499.261;   45.72000; 2.6370e-004
 500.158;   45.81000; 2.6968e-004
 501.061;   45.90000; 2.7712e-004
 501.964;   45.99000; 2.8434e-004
 502.857;   46.08000; 2.9066e-004
 503.76;   46.17000; 2.9751e-004
 504.656;   46.26000; 3.0631e-004
 505.561;   46.35000; 3.1325e-004
 506.466;   46.44000; 3.1873e-004
 507.358;   46.53000; 3.2695e-004
 508.255;   46.62000; 3.3385e-004
 509.143;   46.71000; 3.4086e-004
 510.041;   46.80000; 3.4817e-004
 510.952;   46.89000; 3.5573e-004
 511.846;   46.98000; 3.6238e-004
 512.741;   47.07000; 3.7018e-004
 513.645;   47.16000; 3.7787e-004
 514.542;   47.25000; 3.8472e-004
 515.438;   47.34000; 3.9178e-004
 516.339;   47.43000; 3.9975e-004
 517.228;   47.52000; 4.0681e-004
 518.13;   47.61000; 4.1204e-004
 519.031;   47.70000; 4.2085e-004
 519.932;   47.79000; 4.2604e-004
 520.833;   47.88000; 4.3484e-004
 521.73;   47.97000; 4.4099e-004
 522.63;   48.06000; 4.4838e-004
 523.528;   48.15000; 4.5581e-004
 524.427;   48.24000; 4.6300e-004
 525.327;   48.33000; 4.6973e-004
 526.227;   48.42000; 4.7737e-004
 527.117;   48.51000; 4.8339e-004
 528.026;   48.60000; 4.9115e-004
 528.926;   48.69000; 4.9755e-004
 529.814;   48.78000; 5.0503e-004
 530.718;   48.87000; 5.1250e-004
 531.61;   48.96000; 5.1885e-004
 532.512;   49.05000; 5.2529e-004
 533.409;   49.14000; 5.3347e-004
 534.309;   49.23000; 5.3995e-004
 535.207;   49.32000; 5.4668e-004
 536.108;   49.41000; 5.5465e-004
 537.01;   49.50000; 5.6225e-004
 537.906;   49.59000; 5.6848e-004
 538.8;   49.68000; 5.7596e-004
 539.701;   49.77000; 5.8248e-004
 540.601;   49.86000; 5.9012e-004
 541.491;   49.95000; 5.9788e-004
 542.395;   50.04000; 6.0233e-004
 543.292;   50.13000; 6.1051e-004
 544.202;   50.22000; 6.1790e-004
 545.09;   50.31000; 6.2579e-004
 545.992;   50.40000; 6.3202e-004
 546.892;   50.49000; 6.3825e-004
 547.781;   50.58000; 6.4664e-004
 548.691;   50.67000; 6.5287e-004
 549.586;   50.76000; 6.6071e-004
 550.493;   50.85000; 6.6728e-004
 551.387;   50.94000; 6.7425e-004
 552.286;   51.03000; 6.8181e-004
 553.185;   51.12000; 6.8920e-004
 554.075;   51.21000; 6.9614e-004
 554.981;   51.30000; 7.0490e-004
 555.882;   51.39000; 7.1121e-004
 556.78;   51.48000; 7.1773e-004
 557.683;   51.57000; 7.2575e-004
 558.573;   51.66000; 7.3202e-004
 559.475;   51.75000; 7.3870e-004
 560.385;   51.84000; 7.4676e-004
 561.277;   51.93000; 7.5378e-004
 562.16;   52.02000; 7.6130e-004
 563.068;   52.11000; 7.6723e-004
 563.975;   52.20000; 7.7546e-004
 564.866;   52.29000; 7.8248e-004
 565.766;   52.38000; 7.8958e-004
 566.656;   52.47000; 7.9514e-004
 567.568;   52.56000; 8.0336e-004
 568.465;   52.65000; 8.1001e-004
 569.379;   52.74000; 8.1786e-004
 570.265;   52.83000; 8.2500e-004
 571.157;   52.92000; 8.3389e-004
 572.059;   53.01000; 8.3954e-004
 572.949;   53.10000; 8.4734e-004
 573.859;   53.19000; 8.5486e-004
 574.756;   53.28000; 8.6142e-004
 575.656;   53.37000; 8.6844e-004
 576.561;   53.46000; 8.7604e-004
 577.458;   53.55000; 8.8326e-004
 578.351;   53.64000; 8.9012e-004
 579.25;   53.73000; 8.9743e-004
 580.158;   53.82000; 9.0407e-004
 581.047;   53.91000; 9.1163e-004
 581.937;   54.00000; 9.1952e-004
 582.841;   54.09000; 9.2625e-004
 583.748;   54.18000; 9.3281e-004
 584.638;   54.27000; 9.4057e-004
 585.539;   54.36000; 9.4722e-004
 586.437;   54.45000; 9.5569e-004
 587.332;   54.54000; 9.6204e-004
 588.236;   54.63000; 9.7018e-004
 589.133;   54.72000; 9.7683e-004
 590.036;   54.81000; 9.8505e-004
 590.931;   54.90000; 9.9145e-004
 591.834;   54.99000; 9.9867e-004
 592.731;   55.08000; 9.9934e-004
 593.624;   55.17000; 1.0066e-003
 594.515;   55.26000; 1.0147e-003
 595.418;   55.35000; 1.0218e-003
 596.314;   55.44000; 1.0282e-003
 597.212;   55.53000; 1.0132e-003
 598.11;   55.62000; 1.0174e-003
 598.993;   55.71000; 1.0241e-003
 599.91;   55.80000; 1.0303e-003
 600.81;   55.89000; 1.0363e-003
 601.705;   55.98000; 1.0448e-003
 602.603;   56.07000; 1.0506e-003
 603.5;   56.16000; 1.0576e-003
 604.382;   56.25000; 1.0641e-003
 605.288;   56.34000; 1.0712e-003
 606.189;   56.43000; 1.0778e-003
 607.076;   56.52000; 1.0848e-003
 607.984;   56.61000; 1.0916e-003
 608.884;   56.70000; 1.0985e-003
 609.768;   56.79000; 1.1066e-003
 610.682;   56.88000; 1.1132e-003
 611.578;   56.97000; 1.1201e-003
 612.475;   57.06000; 1.1269e-003
 613.363;   57.15000; 1.1341e-003
 614.27;   57.24000; 1.1422e-003
 615.174;   57.33000; 1.1491e-003
 616.062;   57.42000; 1.1571e-003
 616.963;   57.51000; 1.1623e-003
 617.869;   57.60000; 1.1712e-003
 618.75;   57.69000; 1.1790e-003
 619.651;   57.78000; 1.1857e-003
 620.554;   57.87000; 1.1922e-003
 621.445;   57.96000; 1.2020e-003
 622.35;   58.05000; 1.2081e-003
 623.239;   58.14000; 1.2148e-003
 624.139;   58.23000; 1.2221e-003
 625.037;   58.32000; 1.2292e-003
 625.943;   58.41000; 1.2368e-003
 626.839;   58.50000; 1.2448e-003
 627.728;   58.59000; 1.2523e-003
 628.632;   58.68000; 1.2613e-003
 629.53;   58.77000; 1.2671e-003
 630.417;   58.86000; 1.2758e-003
 631.331;   58.95000; 1.2826e-003
 632.216;   59.04000; 1.2902e-003
 633.121;   59.13000; 1.2976e-003
 634.013;   59.22000; 1.3051e-003
 634.91;   59.31000; 1.3121e-003
 635.806;   59.40000; 1.3198e-003
 636.709;   59.49000; 1.3279e-003
 637.603;   59.58000; 1.3357e-003
 638.503;   59.67000; 1.3426e-003
 639.402;   59.76000; 1.3506e-003
 640.301;   59.85000; 1.3580e-003
 641.192;   59.94000; 1.3637e-003
 642.097;   60.03000; 1.3716e-003
 643.002;   60.12000; 1.3815e-003
 643.887;   60.21000; 1.3868e-003
 644.783;   60.30000; 1.3961e-003
 645.68;   60.39000; 1.4019e-003
 646.587;   60.48000; 1.4106e-003
 647.483;   60.57000; 1.4174e-003
 648.381;   60.66000; 1.4250e-003
 649.267;   60.75000; 1.4336e-003
 650.167;   60.84000; 1.4408e-003
 651.072;   60.93000; 1.4476e-003
 651.963;   61.02000; 1.4547e-003
 652.861;   61.11000; 1.4627e-003
 653.762;   61.20000; 1.4708e-003
 654.666;   61.29000; 1.4781e-003
 655.558;   61.38000; 1.4862e-003
 656.455;   61.47000; 1.4944e-003
 657.359;   61.56000; 1.5020e-003
 658.252;   61.65000; 1.5093e-003
 659.16;   61.74000; 1.5169e-003
 660.055;   61.83000; 1.5235e-003
 660.945;   61.92000; 1.5320e-003
 661.843;   62.01000; 1.5390e-003
 662.741;   62.10000; 1.5484e-003
 663.645;   62.19000; 1.5559e-003
 664.544;   62.28000; 1.5634e-003
 665.431;   62.37000; 1.5717e-003
 666.328;   62.46000; 1.5779e-003
 667.234;   62.55000; 1.5849e-003
 668.14;   62.64000; 1.5925e-003
 669.016;   62.73000; 1.6010e-003
 669.922;   62.82000; 1.6081e-003
 670.822;   62.91000; 1.6152e-003
 671.717;   63.00000; 1.6235e-003
 672.623;   63.09000; 1.6309e-003
 673.507;   63.18000; 1.6387e-003
 674.407;   63.27000; 1.6469e-003
 675.308;   63.36000; 1.6539e-003
 676.207;   63.45000; 1.6616e-003
 677.104;   63.54000; 1.6695e-003
 678.004;   63.63000; 1.6777e-003
 678.893;   63.72000; 1.6849e-003
 679.797;   63.81000; 1.6939e-003
 680.686;   63.90000; 1.7010e-003
 681.593;   63.99000; 1.7089e-003
 682.492;   64.08000; 1.7162e-003
 683.395;   64.17000; 1.7243e-003
 684.29;   64.26000; 1.7316e-003
 685.184;   64.35000; 1.7411e-003
 686.08;   64.44000; 1.7465e-003
 686.983;   64.53000; 1.7533e-003
 687.879;   64.62000; 1.7624e-003
 688.777;   64.71000; 1.7703e-003
 689.68;   64.80000; 1.7767e-003
 690.573;   64.89000; 1.7857e-003
 691.466;   64.98000; 1.7939e-003
 692.37;   65.07000; 1.8015e-003
 693.257;   65.16000; 1.8104e-003
 694.152;   65.25000; 1.8171e-003
 695.054;   65.34000; 1.8238e-003
 695.953;   65.43000; 1.8324e-003
 696.855;   65.52000; 1.8397e-003
 697.755;   65.61000; 1.8481e-003
 698.64;   65.70000; 1.8538e-003
 699.548;   65.79000; 1.8636e-003
 700.442;   65.88000; 1.8711e-003
 701.335;   65.97000; 1.8766e-003
 702.244;   66.06000; 1.8869e-003
 703.136;   66.15000; 1.8941e-003
 704.032;   66.24000; 1.9024e-003
 704.934;   66.33000; 1.9091e-003
 705.834;   66.42000; 1.9179e-003
 706.727;   66.51000; 1.9251e-003
 707.617;   66.60000; 1.9335e-003
 708.517;   66.69000; 1.9408e-003
 709.421;   66.78000; 1.9477e-003
 710.315;   66.87000; 1.9559e-003
 711.213;   66.96000; 1.9630e-003
 712.104;   67.05000; 1.9709e-003
 713.009;   67.14000; 1.9775e-003
 713.908;   67.23000; 1.9872e-003
 714.789;   67.32000; 1.9939e-003
 715.707;   67.41000; 2.0025e-003
 716.605;   67.50000; 2.0104e-003
 717.494;   67.59000; 2.0161e-003
 718.399;   67.68000; 2.0258e-003
 719.292;   67.77000; 2.0330e-003
 720.179;   67.86000; 2.0406e-003
 721.08;   67.95000; 2.0495e-003
 721.99;   68.04000; 2.0570e-003
 722.873;   68.13000; 2.0650e-003
 723.781;   68.22000; 2.0726e-003
 724.674;   68.31000; 2.0799e-003
 725.571;   68.40000; 2.0881e-003
 726.466;   68.49000; 2.0957e-003
 727.363;   68.58000; 2.1041e-003
 728.254;   68.67000; 2.1123e-003
 729.164;   68.76000; 2.1196e-003
 730.058;   68.85000; 2.1277e-003
 730.955;   68.94000; 2.1349e-003
 731.85;   69.03000; 2.1429e-003
 732.739;   69.12000; 2.1510e-003
 733.652;   69.21000; 2.1590e-003
 734.544;   69.30000; 2.1673e-003
 735.438;   69.39000; 2.1740e-003
 736.337;   69.48000; 2.1813e-003
 737.235;   69.57000; 2.1912e-003
 738.139;   69.66000; 2.1990e-003
 739.026;   69.75000; 2.2064e-003
 739.925;   69.84000; 2.2154e-003
 740.821;   69.93000; 2.2227e-003
 741.723;   70.02000; 2.2300e-003
 742.622;   70.11000; 2.2392e-003
 743.51;   70.20000; 2.2455e-003
 744.414;   70.29000; 2.2556e-003
 745.31;   70.38000; 2.2642e-003
 746.206;   70.47000; 2.2703e-003
 747.104;   70.56000; 2.2784e-003
 748.01;   70.65000; 2.2869e-003
 748.896;   70.74000; 2.2949e-003
 749.802;   70.83000; 2.3024e-003
 750.687;   70.92000; 2.3115e-003
 751.589;   71.01000; 2.3184e-003
 752.489;   71.10000; 2.3272e-003
 753.385;   71.19000; 2.3346e-003
 754.274;   71.28000; 2.3428e-003
 755.179;   71.37000; 2.3514e-003
 756.078;   71.46000; 2.3591e-003
 756.968;   71.55000; 2.3671e-003
 757.868;   71.64000; 2.3752e-003
 758.756;   71.73000; 2.3824e-003
 759.669;   71.82000; 2.3912e-003
 760.559;   71.91000; 2.3995e-003
 761.461;   72.00000; 2.4064e-003
 762.348;   72.09000; 2.4167e-003
 763.254;   72.18000; 2.4233e-003
 764.141;   72.27000; 2.4304e-003
 765.049;   72.36000; 2.4396e-003
 765.936;   72.45000; 2.4477e-003
 766.839;   72.54000; 2.4562e-003
 767.728;   72.63000; 2.4643e-003
 768.635;   72.72000; 2.4730e-003
 769.526;   72.81000; 2.4813e-003
 770.423;   72.90000; 2.4891e-003
 771.333;   72.99000; 2.4969e-003
 772.22;   73.08000; 2.5052e-003
 773.129;   73.17000; 2.5142e-003
 774.021;   73.26000; 2.5225e-003
 774.915;   73.35000; 2.5276e-003
 775.809;   73.44000; 2.5377e-003
 776.714;   73.53000; 2.5454e-003
 777.607;   73.62000; 2.5537e-003
 778.514;   73.71000; 2.5623e-003
 779.4;   73.80000; 2.5699e-003
 780.299;   73.89000; 2.5787e-003
 781.193;   73.98000; 2.5873e-003
 782.085;   74.07000; 2.5967e-003
 782.986;   74.16000; 2.6020e-003
 783.892;   74.25000; 2.6113e-003
 784.799;   74.34000; 2.6195e-003
 785.683;   74.43000; 2.6268e-003
 786.58;   74.52000; 2.6362e-003
 787.47;   74.61000; 2.6443e-003
 788.37;   74.70000; 2.6525e-003
 789.27;   74.79000; 2.6618e-003
 790.168;   74.88000; 2.6697e-003
 791.067;   74.97000; 2.6767e-003
 791.966;   75.06000; 2.6855e-003
 792.865;   75.15000; 2.6933e-003
 793.756;   75.24000; 2.7015e-003
 794.662;   75.33000; 2.7072e-003
 795.557;   75.42000; 2.7189e-003
 796.462;   75.51000; 2.7265e-003
 797.367;   75.60000; 2.7365e-003
 798.259;   75.69000; 2.7439e-003
 799.155;   75.78000; 2.7505e-003
 800.057;   75.87000; 2.7603e-003
 800.946;   75.96000; 2.7696e-003
 801.842;   76.05000; 2.7760e-003
 802.748;   76.14000; 2.7841e-003
 803.642;   76.23000; 2.7934e-003
 804.551;   76.32000; 2.8012e-003
 805.451;   76.41000; 2.8098e-003
 806.339;   76.50000; 2.8165e-003
 807.242;   76.59000; 2.8241e-003
 808.137;   76.68000; 2.8339e-003
 809.036;   76.77000; 2.8400e-003
 809.932;   76.86000; 2.8487e-003
 810.831;   76.95000; 2.8571e-003
 811.73;   77.04000; 2.8654e-003
 812.631;   77.13000; 2.8720e-003
 813.527;   77.22000; 2.8824e-003
 814.43;   77.31000; 2.8900e-003
 815.335;   77.40000; 2.8999e-003
 816.221;   77.49000; 2.9076e-003
 817.121;   77.58000; 2.9150e-003
 818.021;   77.67000; 2.9239e-003
 818.926;   77.76000; 2.9305e-003
 819.821;   77.85000; 2.9401e-003
 820.719;   77.94000; 2.9471e-003
 821.618;   78.03000; 2.9571e-003
 822.513;   78.12000; 2.9642e-003
 823.425;   78.21000; 2.9738e-003
 824.313;   78.30000; 2.9809e-003
 825.214;   78.39000; 2.9888e-003
 826.104;   78.48000; 2.9964e-003
 827.008;   78.57000; 3.0053e-003
 827.9;   78.66000; 3.0147e-003
 828.81;   78.75000; 3.0215e-003
 829.688;   78.84000; 3.0298e-003
 830.601;   78.93000; 3.0400e-003
 831.497;   79.02000; 3.0484e-003
 832.394;   79.11000; 3.0553e-003
 833.296;   79.20000; 3.0625e-003
 834.187;   79.29000; 3.0713e-003
 835.093;   79.38000; 3.0803e-003
 835.989;   79.47000; 3.0888e-003
 836.887;   79.56000; 3.0978e-003
 837.788;   79.65000; 3.1051e-003
 838.666;   79.74000; 3.1141e-003
 839.57;   79.83000; 3.1225e-003
 840.474;   79.92000; 3.1309e-003
 841.377;   80.01000; 3.1371e-003
 842.273;   80.10000; 3.1480e-003
 843.168;   80.19000; 3.1543e-003
 844.055;   80.28000; 3.1638e-003
 844.958;   80.37000; 3.1726e-003
 845.86;   80.46000; 3.1814e-003
 846.756;   80.55000; 3.1889e-003
 847.646;   80.64000; 3.1961e-003
 848.545;   80.73000; 3.2069e-003
 849.45;   80.82000; 3.2128e-003
 850.341;   80.91000; 3.2234e-003
 851.243;   81.00000; 3.2297e-003
 852.133;   81.09000; 3.2406e-003
 853.042;   81.18000; 3.2461e-003
 853.931;   81.27000; 3.2549e-003
 854.827;   81.36000; 3.2650e-003
 855.735;   81.45000; 3.2729e-003
 856.619;   81.54000; 3.2778e-003
 857.523;   81.63000; 3.2902e-003
 858.429;   81.72000; 3.2974e-003
 859.32;   81.81000; 3.3049e-003
 860.212;   81.90000; 3.3157e-003
 861.117;   81.99000; 3.3225e-003
 862.012;   82.08000; 3.3329e-003
 862.911;   82.17000; 3.3390e-003
 863.802;   82.26000; 3.3489e-003
 864.705;   82.35000; 3.3560e-003
 865.595;   82.44000; 3.3640e-003
 866.504;   82.53000; 3.3733e-003
 867.402;   82.62000; 3.3802e-003
 868.29;   82.71000; 3.3892e-003
 869.191;   82.80000; 3.3980e-003
 870.086;   82.89000; 3.4074e-003
 870.98;   82.98000; 3.4150e-003
 871.889;   83.07000; 3.4230e-003
 872.779;   83.16000; 3.4322e-003
 873.69;   83.25000; 3.4404e-003
 874.564;   83.34000; 3.4490e-003
 875.485;   83.43000; 3.4569e-003
 876.363;   83.52000; 3.4661e-003
 877.271;   83.61000; 3.4730e-003
 878.166;   83.70000; 3.4815e-003
 879.061;   83.79000; 3.4903e-003
 879.959;   83.88000; 3.4973e-003
 880.865;   83.97000; 3.5056e-003
 881.753;   84.06000; 3.5140e-003
 882.652;   84.15000; 3.5227e-003
 883.566;   84.24000; 3.5299e-003
 884.448;   84.33000; 3.5369e-003
 885.355;   84.42000; 3.5456e-003
 886.256;   84.51000; 3.5552e-003
 887.143;   84.60000; 3.5640e-003
 888.052;   84.69000; 3.5705e-003
 888.945;   84.78000; 3.5787e-003
 889.839;   84.87000; 3.5867e-003
 890.744;   84.96000; 3.5943e-003
 891.635;   85.05000; 3.6053e-003
 892.536;   85.14000; 3.6140e-003
 893.431;   85.23000; 3.6177e-003
 894.328;   85.32000; 3.6271e-003
 895.238;   85.41000; 3.6351e-003
 896.134;   85.50000; 3.6474e-003
 897.029;   85.59000; 3.6528e-003
 897.929;   85.68000; 3.6650e-003
 898.823;   85.77000; 3.6718e-003
 899.726;   85.86000; 3.6805e-003
 900.624;   85.95000; 3.6873e-003
 901.536;   86.04000; 3.6978e-003
 902.425;   86.13000; 3.7042e-003
 903.316;   86.22000; 3.7142e-003
 904.204;   86.31000; 3.7210e-003
 905.111;   86.40000; 3.7299e-003
 906.001;   86.49000; 3.7395e-003
 906.908;   86.58000; 3.7473e-003
 907.803;   86.67000; 3.7520e-003
 908.703;   86.76000; 3.7613e-003
 909.602;   86.85000; 3.7707e-003
 910.498;   86.94000; 3.7809e-003
 911.396;   87.03000; 3.7900e-003
 912.287;   87.12000; 3.7968e-003
 913.188;   87.21000; 3.8055e-003
 914.09;   87.30000; 3.8141e-003
 914.994;   87.39000; 3.8222e-003
 915.892;   87.48000; 3.8319e-003
 916.79;   87.57000; 3.8386e-003
 917.679;   87.66000; 3.8484e-003
 918.581;   87.75000; 3.8546e-003
 919.477;   87.84000; 3.8655e-003
 920.374;   87.93000; 3.8716e-003
 921.271;   88.02000; 3.8823e-003
 922.168;   88.11000; 3.8902e-003
 923.073;   88.20000; 3.8961e-003
 923.97;   88.29000; 3.9074e-003
 924.868;   88.38000; 3.9131e-003
 925.76;   88.47000; 3.9204e-003
 926.654;   88.56000; 3.9351e-003
 927.559;   88.65000; 3.9422e-003
 928.447;   88.74000; 3.9473e-003
 929.35;   88.83000; 3.9581e-003
 930.25;   88.92000; 3.9678e-003
 931.147;   89.01000; 3.9724e-003
 932.049;   89.10000; 3.9846e-003
 932.942;   89.19000; 3.9927e-003
 933.848;   89.28000; 4.0019e-003
 934.737;   89.37000; 4.0112e-003
 935.627;   89.46000; 4.0189e-003
 936.527;   89.55000; 4.0272e-003
 937.429;   89.64000; 4.0345e-003
 938.32;   89.73000; 4.0444e-003
 939.228;   89.82000; 4.0526e-003
 940.126;   89.91000; 4.0601e-003
 941.015;   90.00000; 4.0701e-003
 941.916;   90.09000; 4.0777e-003
 942.804;   90.18000; 4.0879e-003
 943.711;   90.27000; 4.0954e-003
 944.611;   90.36000; 4.1022e-003
 945.49;   90.45000; 4.1126e-003
 946.397;   90.54000; 4.1204e-003
 947.303;   90.63000; 4.1291e-003
 948.188;   90.72000; 4.1387e-003
 949.098;   90.81000; 4.1470e-003
 949.989;   90.90000; 4.1542e-003
 950.882;   90.99000; 4.1630e-003
 951.788;   91.08000; 4.1706e-003
 952.683;   91.17000; 4.1769e-003
 953.583;   91.26000; 4.1868e-003
 954.479;   91.35000; 4.1974e-003
 955.371;   91.44000; 4.2037e-003
 956.275;   91.53000; 4.2151e-003
 957.166;   91.62000; 4.2235e-003
 958.067;   91.71000; 4.2302e-003
 958.967;   91.80000; 4.2368e-003
 959.865;   91.89000; 4.2480e-003
 960.763;   91.98000; 4.2564e-003
 961.662;   92.07000; 4.2625e-003
 962.551;   92.16000; 4.2750e-003
 963.452;   92.25000; 4.2789e-003
 964.343;   92.34000; 4.2915e-003
 965.25;   92.43000; 4.2973e-003
 966.144;   92.52000; 4.3076e-003
 967.051;   92.61000; 4.3149e-003
 967.945;   92.70000; 4.3247e-003
 968.856;   92.79000; 4.3308e-003
 969.741;   92.88000; 4.3387e-003
 970.648;   92.97000; 4.3488e-003
 971.534;   93.06000; 4.3579e-003
 972.436;   93.15000; 4.3646e-003
 973.349;   93.24000; 4.3740e-003
 974.233;   93.33000; 4.3831e-003
 975.133;   93.42000; 4.3916e-003
 976.034;   93.51000; 4.4008e-003
 976.935;   93.60000; 4.4097e-003
 977.832;   93.69000; 4.4162e-003
 978.722;   93.78000; 4.4247e-003
 979.62;   93.87000; 4.4326e-003
 980.533;   93.96000; 4.4418e-003
 981.417;   94.05000; 4.4498e-003
 982.32;   94.14000; 4.4601e-003
 983.231;   94.23000; 4.4657e-003
 984.112;   94.32000; 4.4711e-003
 985.024;   94.41000; 4.4815e-003
 985.915;   94.50000; 4.4920e-003
 986.826;   94.59000; 4.4994e-003
 987.715;   94.68000; 4.5074e-003
 988.615;   94.77000; 4.5143e-003
 989.508;   94.86000; 4.5239e-003
 990.419;   94.95000; 4.5331e-003
 991.309;   95.04000; 4.5413e-003
 992.206;   95.13000; 4.5494e-003
 993.121;   95.22000; 4.5578e-003
 994.005;   95.31000; 4.5650e-003
 994.92;   95.40000; 4.5736e-003
 995.802;   95.49000; 4.5817e-003
 996.708;   95.58000; 4.5909e-003
 997.612;   95.67000; 4.5987e-003
 998.511;   95.76000; 4.6066e-003
 999.403;   95.85000; 4.6143e-003
1000.31;   95.94000; 4.6235e-003
1001.21;   96.03000; 4.6316e-003
1002.11;   96.12000; 4.6402e-003
1003;   96.21000; 4.6516e-003
1003.9;   96.30000; 4.6583e-003
1004.8;   96.39000; 4.6689e-003
1005.7;   96.48000; 4.6738e-003
1006.61;   96.57000; 4.6817e-003
1007.5;   96.66000; 4.6907e-003
1008.4;   96.75000; 4.7004e-003
1009.29;   96.84000; 4.7084e-003
1010.19;   96.93000; 4.7170e-003
1011.09;   97.02000; 4.7245e-003
1012;   97.11000; 4.7350e-003
1012.89;   97.20000; 4.7427e-003
1013.79;   97.29000; 4.7520e-003
1014.7;   97.38000; 4.7585e-003
1015.58;   97.47000; 4.7678e-003
1016.49;   97.56000; 4.7737e-003
1017.39;   97.65000; 4.7846e-003
1018.28;   97.74000; 4.7928e-003
1019.19;   97.83000; 4.8037e-003
1020.07;   97.92000; 4.8092e-003
1020.98;   98.01000; 4.8181e-003
1021.88;   98.10000; 4.8272e-003
1022.77;   98.19000; 4.8326e-003
1023.68;   98.28000; 4.8436e-003
1024.57;   98.37000; 4.8522e-003
1025.47;   98.46000; 4.8604e-003
1026.38;   98.55000; 4.8661e-003
1027.27;   98.64000; 4.8758e-003
1028.17;   98.73000; 4.8831e-003
1029.08;   98.82000; 4.8927e-003
1029.97;   98.91000; 4.9026e-003
1030.87;   99.00000; 4.9103e-003
1031.76;   99.09000; 4.9168e-003
1032.67;   99.18000; 4.9260e-003
1033.56;   99.27000; 4.9372e-003
1034.46;   99.36000; 4.9449e-003
1035.35;   99.45000; 4.9498e-003
1036.27;   99.54000; 4.9576e-003
1037.16;   99.63000; 4.9691e-003
1038.06;   99.72000; 4.9784e-003
1038.95;   99.81000; 4.9817e-003
1039.85;   99.90000; 4.9927e-003
1040.74;   99.99000; 5.0017e-003
1041.64;  100.08; 5.0101e-003
1042.55;  100.17; 5.0186e-003
1043.44;  100.26; 5.0265e-003
1044.34;  100.35; 5.0356e-003
1045.24;  100.44; 5.0441e-003
1046.13;  100.53; 5.0544e-003
1047.03;  100.62; 5.0595e-003
1047.93;  100.71; 5.0702e-003
1048.83;  100.8; 5.0780e-003
1049.73;  100.89; 5.0888e-003
1050.62;  100.98; 5.0965e-003
1051.53;  101.07; 5.1079e-003
1052.42;  101.16; 5.1157e-003
1053.32;  101.25; 5.1239e-003
1054.21;  101.34; 5.1321e-003
1055.11;  101.43; 5.1412e-003
1056;  101.52; 5.1506e-003
1056.91;  101.61; 5.1582e-003
1057.8;  101.7; 5.1672e-003
1058.7;  101.79; 5.1758e-003
1059.59;  101.88; 5.1839e-003
1060.51;  101.97; 5.1906e-003
1061.4;  102.06; 5.2026e-003
1062.3;  102.15; 5.2081e-003
1063.2;  102.24; 5.2147e-003
1064.1;  102.33; 5.2256e-003
1064.99;  102.42; 5.2334e-003
1065.89;  102.51; 5.2445e-003
1066.79;  102.6; 5.2519e-003
1067.69;  102.69; 5.2611e-003
1068.58;  102.78; 5.2667e-003
1069.48;  102.87; 5.2757e-003
1070.38;  102.96; 5.2849e-003
1071.27;  103.05; 5.2882e-003
1072.19;  103.14; 5.3025e-003
1073.08;  103.23; 5.3125e-003
1073.97;  103.32; 5.3175e-003
1074.88;  103.41; 5.3276e-003
1075.76;  103.5; 5.3353e-003
1076.67;  103.59; 5.3445e-003
1077.58;  103.68; 5.3506e-003
1078.47;  103.77; 5.3610e-003
1079.37;  103.86; 5.3684e-003
1080.26;  103.95; 5.3757e-003
1081.16;  104.04; 5.3848e-003
1082.06;  104.13; 5.3937e-003
1082.96;  104.22; 5.4040e-003
1083.85;  104.31; 5.4082e-003
1084.76;  104.4; 5.4171e-003
1085.66;  104.49; 5.4265e-003
1086.56;  104.58; 5.4349e-003
1087.44;  104.67; 5.4409e-003
1088.35;  104.76; 5.4514e-003
1089.23;  104.85; 5.4552e-003
1090.14;  104.94; 5.4654e-003
1091.04;  105.03; 5.4757e-003
1091.93;  105.12; 5.4843e-003
1092.83;  105.21; 5.4909e-003
1093.74;  105.3; 5.5006e-003
1094.63;  105.39; 5.5030e-003
1095.53;  105.48; 5.5154e-003
1096.45;  105.57; 5.5230e-003
1097.33;  105.66; 5.5310e-003
1098.23;  105.75; 5.5361e-003
1099.14;  105.84; 5.5467e-003
1100.03;  105.93; 5.5567e-003
1100.92;  106.02; 5.5644e-003
1101.82;  106.11; 5.5720e-003
1102.73;  106.2; 5.5794e-003
1103.62;  106.29; 5.5902e-003
1104.53;  106.38; 5.5974e-003
1105.43;  106.47; 5.6021e-003
1106.32;  106.56; 5.6130e-003
1107.22;  106.65; 5.6190e-003
1108.11;  106.74; 5.6267e-003
1109.02;  106.83; 5.6378e-003
1109.93;  106.92; 5.6454e-003
1110.81;  107.01; 5.6488e-003
1111.72;  107.1; 5.6610e-003
1112.61;  107.19; 5.6681e-003
1113.51;  107.28; 5.6760e-003
1114.42;  107.37; 5.6843e-003
1115.3;  107.46; 5.6936e-003
1116.2;  107.55; 5.7017e-003
1117.12;  107.64; 5.7097e-003
1118;  107.73; 5.7191e-003
1118.91;  107.82; 5.7258e-003
1119.8;  107.91; 5.7359e-003
1120.71;  108; 5.7424e-003
1121.6;  108.09; 5.7522e-003
1122.5;  108.18; 5.7571e-003
1123.4;  108.27; 5.7672e-003
1124.3;  108.36; 5.7753e-003
1125.2;  108.45; 5.7831e-003
1126.09;  108.54; 5.7893e-003
1126.99;  108.63; 5.7995e-003
1127.9;  108.72; 5.8078e-003
1128.79;  108.81; 5.8148e-003
1129.69;  108.9; 5.8238e-003
1130.6;  108.99; 5.8305e-003
1131.49;  109.08; 5.8366e-003
1132.39;  109.17; 5.8448e-003
1133.28;  109.26; 5.8552e-003
1134.19;  109.35; 5.8609e-003
1135.07;  109.44; 5.8694e-003
1135.97;  109.53; 5.8767e-003
1136.88;  109.62; 5.8869e-003
1137.78;  109.71; 5.8908e-003
1138.68;  109.8; 5.9021e-003
1139.58;  109.89; 5.9076e-003
1140.47;  109.98; 5.9182e-003
1141.39;  110.07; 5.9263e-003
1142.26;  110.16; 5.9302e-003
1143.16;  110.25; 5.9397e-003
1144.07;  110.34; 5.9451e-003
1144.96;  110.43; 5.9520e-003
1145.88;  110.52; 5.9607e-003
1146.76;  110.61; 5.9700e-003
1147.66;  110.7; 5.9734e-003
1148.55;  110.79; 5.9861e-003
1149.46;  110.88; 5.9912e-003
1150.36;  110.97; 5.9997e-003
1151.26;  111.06; 6.0086e-003
1152.16;  111.15; 6.0157e-003
1153.05;  111.24; 6.0223e-003
1153.95;  111.33; 6.0294e-003
1154.85;  111.42; 6.0381e-003
1155.75;  111.51; 6.0454e-003
1156.65;  111.6; 6.0500e-003
1157.55;  111.69; 6.0624e-003
1158.45;  111.78; 6.0671e-003
1159.35;  111.87; 6.0751e-003
1160.24;  111.96; 6.0855e-003
1161.14;  112.05; 6.0920e-003
1162.03;  112.14; 6.0970e-003
1162.94;  112.23; 6.1061e-003
1163.84;  112.32; 6.1123e-003
1164.73;  112.41; 6.1195e-003
1165.64;  112.5; 6.1272e-003
1166.53;  112.59; 6.1324e-003
1167.43;  112.68; 6.1407e-003
1168.33;  112.77; 6.1482e-003
1169.23;  112.86; 6.1517e-003
1170.14;  112.95; 6.1643e-003
1171.03;  113.04; 6.1734e-003
1171.94;  113.13; 6.1794e-003
1172.84;  113.22; 6.1849e-003
1173.73;  113.31; 6.1885e-003
1174.64;  113.4; 6.2000e-003
1175.52;  113.49; 6.2034e-003
1176.43;  113.58; 6.2080e-003
1177.33;  113.67; 6.2189e-003
1178.22;  113.76; 6.2229e-003
1179.12;  113.85; 6.2343e-003
1180.01;  113.94; 6.2413e-003
1180.92;  114.03; 6.2444e-003
1181.81;  114.12; 6.2464e-003
1182.72;  114.21; 6.2603e-003
1183.62;  114.3; 6.2674e-003
1184.53;  114.39; 6.2723e-003
1185.42;  114.48; 6.2779e-003
1186.32;  114.57; 6.2859e-003
1187.22;  114.66; 6.2911e-003
1188.11;  114.75; 6.2965e-003
1189;  114.84; 6.3015e-003
1189.91;  114.93; 6.3098e-003
1190.81;  115.02; 6.3157e-003
1191.71;  115.11; 6.3212e-003
1192.61;  115.2; 6.3306e-003
1193.5;  115.29; 6.3368e-003
1194.41;  115.38; 6.3411e-003
1195.3;  115.47; 6.3476e-003
1196.2;  115.56; 6.3537e-003
1197.11;  115.65; 6.3627e-003
1198.01;  115.74; 6.3658e-003
1198.9;  115.83; 6.3744e-003
1199.79;  115.92; 6.3728e-003
1200.7;  116.01; 6.3858e-003
1201.6;  116.1; 6.3912e-003
1202.5;  116.19; 6.3950e-003
1203.39;  116.28; 6.4017e-003
1204.29;  116.37; 6.4076e-003
1205.19;  116.46; 6.4125e-003
1206.09;  116.55; 6.4175e-003
1206.98;  116.64; 6.4222e-003
1207.88;  116.73; 6.4248e-003
1208.8;  116.82; 6.4359e-003
1209.68;  116.91; 6.4407e-003
1210.58;  117; 6.4464e-003
1211.47;  117.09; 6.4496e-003
1212.38;  117.18; 6.4557e-003
1213.27;  117.27; 6.4598e-003
1214.18;  117.36; 6.4681e-003
1215.07;  117.45; 6.4694e-003
1215.97;  117.54; 6.4702e-003
1216.88;  117.63; 6.4840e-003
1217.77;  117.72; 6.4874e-003
1218.67;  117.81; 6.4917e-003
1219.58;  117.9; 6.4995e-003
1220.46;  117.99; 6.4996e-003
1221.37;  118.08; 6.5081e-003
1222.28;  118.17; 6.5135e-003
1223.16;  118.26; 6.5179e-003
1224.07;  118.35; 6.5211e-003
1224.96;  118.44; 6.5280e-003
1225.86;  118.53; 6.5340e-003
1226.76;  118.62; 6.5373e-003
1227.67;  118.71; 6.5455e-003
1228.56;  118.8; 6.5465e-003
1229.45;  118.89; 6.5547e-003
1230.36;  118.98; 6.5589e-003
1231.26;  119.07; 6.5636e-003
1232.16;  119.16; 6.5687e-003
1233.07;  119.25; 6.5702e-003
1233.96;  119.34; 6.5754e-003
1234.86;  119.43; 6.5811e-003
1235.76;  119.52; 6.5862e-003
1236.66;  119.61; 6.5888e-003
1237.56;  119.7; 6.5928e-003
1238.45;  119.79; 6.5926e-003
1239.35;  119.88; 6.5995e-003
1240.24;  119.97; 6.6038e-003
1241.15;  120.06; 6.6071e-003
1242.06;  120.15; 6.6096e-003
1242.94;  120.24; 6.6126e-003
1243.86;  120.33; 6.6171e-003
1244.74;  120.42; 6.6228e-003
1245.65;  120.51; 6.6250e-003
1246.55;  120.6; 6.6273e-003
1247.44;  120.69; 6.6331e-003
1248.35;  120.78; 6.6344e-003
1249.25;  120.87; 6.6365e-003
1250.15;  120.96; 6.6425e-003
1251.05;  121.05; 6.6382e-003
1251.95;  121.14; 6.6484e-003
1252.84;  121.23; 6.6505e-003
1253.74;  121.32; 6.6524e-003
1254.64;  121.41; 6.6605e-003
1255.55;  121.5; 6.6613e-003
1256.44;  121.59; 6.6637e-003
1257.33;  121.68; 6.6686e-003
1258.24;  121.77; 6.6711e-003
1259.15;  121.86; 6.6704e-003
1260.04;  121.95; 6.6770e-003
1260.94;  122.04; 6.6783e-003
1261.85;  122.13; 6.6804e-003
1262.74;  122.22; 6.6850e-003
1263.66;  122.31; 6.6882e-003
1264.54;  122.4; 6.6843e-003
1265.44;  122.49; 6.6932e-003
1266.34;  122.58; 6.6931e-003
1267.24;  122.67; 6.6966e-003
1268.16;  122.76; 6.7008e-003
1269.05;  122.85; 6.7005e-003
1269.95;  122.94; 6.7045e-003
1270.84;  123.03; 6.7060e-003
1271.74;  123.12; 6.7076e-003
1272.62;  123.21; 6.7057e-003
1273.54;  123.3; 6.7152e-003
1274.44;  123.39; 6.7180e-003
1275.33;  123.48; 6.7180e-003
1276.24;  123.57; 6.7218e-003
1277.12;  123.66; 6.7227e-003
1278.04;  123.75; 6.7238e-003
1278.96;  123.84; 6.7265e-003
1279.84;  123.93; 6.7275e-003
1280.74;  124.02; 6.7298e-003
1281.64;  124.11; 6.7265e-003
1282.54;  124.2; 6.7334e-003
1283.44;  124.29; 6.7339e-003
1284.34;  124.38; 6.7304e-003
1285.23;  124.47; 6.7370e-003
1286.13;  124.56; 6.7385e-003
1287.03;  124.65; 6.7395e-003
1287.95;  124.74; 6.7383e-003
1288.84;  124.83; 6.7400e-003
1289.73;  124.92; 6.7434e-003
1290.63;  125.01; 6.7419e-003
1291.54;  125.1; 6.7430e-003
1292.43;  125.19; 6.7444e-003
1293.34;  125.28; 6.7432e-003
1294.24;  125.37; 6.7424e-003
1295.14;  125.46; 6.7458e-003
1296.04;  125.55; 6.7468e-003
1296.93;  125.64; 6.7464e-003
1297.84;  125.73; 6.7428e-003
1298.72;  125.82; 6.7461e-003
1299.64;  125.91; 6.7487e-003
1300.54;  126; 6.7464e-003
1301.42;  126.09; 6.7465e-003
1302.32;  126.18; 6.7466e-003
1303.21;  126.27; 6.7456e-003
1304.13;  126.36; 6.7466e-003
1305.03;  126.45; 6.7461e-003
1305.92;  126.54; 6.7458e-003
1306.84;  126.63; 6.7432e-003
1307.72;  126.72; 6.7444e-003
1308.63;  126.81; 6.7432e-003
1309.52;  126.9; 6.7419e-003
1310.44;  126.99; 6.7406e-003
1311.33;  127.08; 6.7395e-003
1312.23;  127.17; 6.7354e-003
1313.13;  127.26; 6.7348e-003
1314.03;  127.35; 6.7333e-003
1314.93;  127.44; 6.7351e-003
1315.82;  127.53; 6.7308e-003
1316.73;  127.62; 6.7245e-003
1317.63;  127.71; 6.7297e-003
1318.53;  127.8; 6.7270e-003
1319.43;  127.89; 6.7215e-003
1320.32;  127.98; 6.7210e-003
1321.23;  128.07; 6.7206e-003
1322.14;  128.16; 6.7162e-003
1323.02;  128.25; 6.7145e-003
1323.94;  128.34; 6.7112e-003
1324.82;  128.43; 6.7087e-003
1325.74;  128.52; 6.7060e-003
1326.65;  128.61; 6.6995e-003
1327.53;  128.7; 6.7016e-003
1328.44;  128.79; 6.6983e-003
1329.33;  128.88; 6.6968e-003
1330.24;  128.97; 6.6915e-003
1331.14;  129.06; 6.6927e-003
1332.03;  129.15; 6.6875e-003
1332.93;  129.24; 6.6883e-003
1333.83;  129.33; 6.6851e-003
1334.73;  129.42; 6.6809e-003
1335.63;  129.51; 6.6776e-003
1336.54;  129.6; 6.6730e-003
1337.44;  129.69; 6.6734e-003
1338.34;  129.78; 6.6676e-003
1339.24;  129.87; 6.6672e-003
1340.13;  129.96; 6.6615e-003
1341.02;  130.05; 6.6586e-003
1341.93;  130.14; 6.6571e-003
1342.82;  130.23; 6.6485e-003
1343.73;  130.32; 6.6490e-003
1344.63;  130.41; 6.6461e-003
1345.53;  130.5; 6.6417e-003
1346.43;  130.59; 6.6362e-003
1347.33;  130.68; 6.6315e-003
1348.21;  130.77; 6.6297e-003
1349.13;  130.86; 6.6230e-003
1350.04;  130.95; 6.6209e-003
1350.44;  130.99; 6.6188e-003