File: 000401_K06_1_1350_Air-static.txt
#FILE:                 ;000401_K06_1_1350_Air-static.sle
#FORMAT:               ;NETZSCH5
#IDENTITY:             ;000401
#DECIMAL:              ;POINT
#SEPARATOR:            ;SEMICOLON
#MTYPE:                ;DIL
#MSUBTYPE:             ;
#INSTRUMENT:           ;NETZSCH DIL 402 C
#PROJECT:              ;
#DATE/TIME:            ;26.06.2021 20:15:00
#CORR. FILE:           ;
#LABORATORY:           ;НМ
#OPERATOR:             ;Орлов Н.
#REMARK:               ;
#SAMPLE:               ;K06_1
#SAMPLE LENGTH /mm:    ;2.910
#MATERIAL:             ;стандартный образец
#MEASMODE:             ;Standard Expansion
#PURGE GAS 1:          ;
#FLOW RATE 1 /(ml/min):;0
#CORR. CODE:           ;000
#RANGE:                ;40.0/1.0(K/мин)/1350.0
#SEGMENT:              ;S1/1

##Temp./°C;Time/min;dL/Lo
  40.29600;0.0000e+000; 0.0000e+000
  40.48800;    0.87500;-2.5773e-006
  40.88900;    1.75000;-1.2457e-005
  41.36500;    2.62500;-2.3196e-005
  41.92900;    3.50000;-3.7801e-005
  42.60000;    4.37500;-5.5412e-005
  43.36300;    5.25000;-7.3883e-005
  44.20400;    6.12500;-9.4931e-005
  45.10200;    7.00000;-1.1469e-004
  46.05900;    7.87500;-1.3316e-004
  47.06500;    8.75000;-1.5249e-004
  48.10700;    9.62500;-1.6924e-004
  49.16700;   10.50000;-1.8256e-004
  50.24300;   11.37500;-1.9459e-004
  51.32800;   12.25000;-2.0404e-004
  52.40600;   13.12500;-2.1220e-004
  53.47700;   14.00000;-2.1392e-004
  54.54800;   14.87500;-2.1521e-004
  55.59600;   15.75000;-2.1607e-004
  56.61500;   16.62500;-2.1134e-004
  57.61500;   17.50000;-2.0747e-004
  58.59900;   18.37500;-1.9931e-004
  59.55600;   19.25000;-1.9244e-004
  60.50300;   20.12500;-1.8256e-004
  61.41700;   21.00000;-1.7053e-004
  62.32300;   21.87500;-1.6151e-004
  63.21600;   22.75000;-1.4691e-004
  64.09100;   23.62500;-1.3531e-004
  64.96300;   24.50000;-1.2156e-004
  65.81900;   25.37500;-1.1168e-004
  66.66700;   26.25000;-9.6220e-005
  67.52000;   27.12500;-8.5052e-005
  68.36800;   28.00000;-7.5601e-005
  69.20700;   28.87500;-6.2285e-005
  70.06000;   29.75000;-5.2835e-005
  70.90700;   30.62500;-4.1237e-005
  71.75900;   31.50000;-3.0928e-005
  72.61000;   32.37500;-1.8041e-005
  73.46700;   33.25000;-9.0206e-006
  74.33700;   34.12500; 4.2955e-007
  75.20300;   35.00000; 1.0739e-005
  76.07100;   35.87500; 1.8471e-005
  76.94100;   36.75000; 3.0498e-005
  77.82100;   37.62500; 3.7371e-005
  78.71000;   38.50000; 4.7680e-005
  79.57600;   39.37500; 5.7560e-005
  80.45400;   40.25000; 6.4003e-005
  81.33400;   41.12500; 7.7320e-005
  82.22400;   42.00000; 8.5052e-005
  83.09800;   42.87500; 9.5361e-005
  83.98100;   43.75000; 1.0610e-004
  84.87300;   44.62500; 1.1598e-004
  85.75300;   45.50000; 1.2328e-004
  86.62600;   46.37500; 1.3445e-004
  87.50100;   47.25000; 1.4691e-004
  88.38800;   48.12500; 1.5550e-004
  89.26700;   49.00000; 1.6710e-004
  90.15800;   49.87500; 1.7869e-004
  91.03300;   50.75000; 1.8900e-004
  91.91700;   51.62500; 2.0146e-004
  92.79500;   52.50000; 2.1306e-004
  93.66900;   53.37500; 2.2208e-004
  94.54300;   54.25000; 2.3668e-004
  95.42100;   55.12500; 2.4699e-004
  96.28800;   56.00000; 2.6117e-004
  97.17800;   56.87500; 2.7191e-004
  98.04300;   57.75000; 2.8565e-004
  98.92300;   58.62500; 2.9639e-004
  99.80700;   59.50000; 3.0756e-004
 100.684;   60.37500; 3.2002e-004
 101.553;   61.25000; 3.3333e-004
 102.433;   62.12500; 3.4708e-004
 103.303;   63.00000; 3.5739e-004
 104.174;   63.87500; 3.7113e-004
 105.052;   64.75000; 3.8230e-004
 105.935;   65.62500; 3.9304e-004
 106.809;   66.50000; 4.0765e-004
 107.685;   67.37500; 4.2010e-004
 108.562;   68.25000; 4.2998e-004
 109.446;   69.12500; 4.4502e-004
 110.324;   70.00000; 4.5747e-004
 111.208;   70.87500; 4.7165e-004
 112.081;   71.75000; 4.8282e-004
 112.956;   72.62500; 4.9742e-004
 113.842;   73.50000; 5.1074e-004
 114.724;   74.37500; 5.2406e-004
 115.604;   75.25000; 5.3565e-004
 116.484;   76.12500; 5.5112e-004
 117.36;   77.00000; 5.6357e-004
 118.241;   77.87500; 5.7474e-004
 119.113;   78.75000; 5.9107e-004
 119.995;   79.62500; 6.0567e-004
 120.864;   80.50000; 6.1727e-004
 121.739;   81.37500; 6.3058e-004
 122.617;   82.25000; 6.4605e-004
 123.503;   83.12500; 6.5894e-004
 124.379;   84.00000; 6.7483e-004
 125.269;   84.87500; 6.8814e-004
 126.14;   85.75000; 7.0318e-004
 127.013;   86.62500; 7.1478e-004
 127.895;   87.50000; 7.2938e-004
 128.767;   88.37500; 7.4270e-004
 129.637;   89.25000; 7.5687e-004
 130.508;   90.12500; 7.7019e-004
 131.393;   91.00000; 7.8565e-004
 132.257;   91.87500; 7.9983e-004
 133.146;   92.75000; 8.1572e-004
 134.015;   93.62500; 8.2904e-004
 134.896;   94.50000; 8.4407e-004
 135.785;   95.37500; 8.5739e-004
 136.65;   96.25000; 8.6985e-004
 137.533;   97.12500; 8.8746e-004
 138.406;   98.00000; 8.9991e-004
 139.28;   98.87500; 9.1366e-004
 140.155;   99.75000; 9.2998e-004
 141.033;  100.625; 9.4459e-004
 141.911;  101.5; 9.5962e-004
 142.781;  102.375; 9.7294e-004
 143.658;  103.25; 9.8969e-004
 144.54;  104.125; 1.0026e-003
 145.412;  105; 1.0180e-003
 146.282;  105.875; 1.0326e-003
 147.167;  106.75; 1.0447e-003
 148.044;  107.625; 1.0584e-003
 148.92;  108.5; 1.0735e-003
 149.798;  109.375; 1.0889e-003
 150.675;  110.25; 1.1048e-003
 151.545;  111.125; 1.1186e-003
 152.423;  112; 1.1332e-003
 153.303;  112.875; 1.1460e-003
 154.183;  113.75; 1.1641e-003
 155.05;  114.625; 1.1783e-003
 155.932;  115.5; 1.1924e-003
 156.803;  116.375; 1.2083e-003
 157.688;  117.25; 1.2221e-003
 158.565;  118.125; 1.2393e-003
 159.44;  119; 1.2517e-003
 160.322;  119.875; 1.2668e-003
 161.189;  120.75; 1.2788e-003
 162.062;  121.625; 1.2955e-003
 162.947;  122.5; 1.3123e-003
 163.826;  123.375; 1.3286e-003
 164.698;  124.25; 1.3419e-003
 165.586;  125.125; 1.3591e-003
 166.45;  126; 1.3737e-003
 167.337;  126.875; 1.3849e-003
 168.208;  127.75; 1.4034e-003
 169.085;  128.625; 1.4162e-003
 169.959;  129.5; 1.4334e-003
 170.821;  130.375; 1.4463e-003
 171.714;  131.25; 1.4609e-003
 172.592;  132.125; 1.4721e-003
 173.464;  133; 1.4906e-003
 174.343;  133.875; 1.5043e-003
 175.217;  134.75; 1.5206e-003
 176.092;  135.625; 1.5326e-003
 176.969;  136.5; 1.5498e-003
 177.839;  137.375; 1.5644e-003
 178.726;  138.25; 1.5808e-003
 179.591;  139.125; 1.5924e-003
 180.479;  140; 1.6070e-003
 181.343;  140.875; 1.6211e-003
 182.228;  141.75; 1.6366e-003
 183.103;  142.625; 1.6516e-003
 183.984;  143.5; 1.6658e-003
 184.86;  144.375; 1.6830e-003
 185.736;  145.25; 1.6967e-003
 186.609;  146.125; 1.7118e-003
 187.483;  147; 1.7281e-003
 188.351;  147.875; 1.7444e-003
 189.234;  148.75; 1.7543e-003
 190.109;  149.625; 1.7719e-003
 190.98;  150.5; 1.7844e-003
 191.856;  151.375; 1.7998e-003
 192.732;  152.25; 1.8153e-003
 193.613;  153.125; 1.8312e-003
 194.482;  154; 1.8462e-003
 195.36;  154.875; 1.8565e-003
 196.238;  155.75; 1.8746e-003
 197.122;  156.625; 1.8905e-003
 197.989;  157.5; 1.9064e-003
 198.862;  158.375; 1.9175e-003
 199.748;  159.25; 1.9394e-003
 200.63;  160.125; 1.9532e-003
 201.493;  161; 1.9704e-003
 202.373;  161.875; 1.9850e-003
 203.252;  162.75; 2.0026e-003
 204.123;  163.625; 2.0129e-003
 205;  164.5; 2.0301e-003
 205.876;  165.375; 2.0477e-003
 206.759;  166.25; 2.0614e-003
 207.641;  167.125; 2.0816e-003
 208.515;  168; 2.0936e-003
 209.391;  168.875; 2.1095e-003
 210.283;  169.75; 2.1293e-003
 211.15;  170.625; 2.1452e-003
 212.042;  171.5; 2.1624e-003
 212.92;  172.375; 2.1808e-003
 213.803;  173.25; 2.1942e-003
 214.677;  174.125; 2.2118e-003
 215.564;  175; 2.2259e-003
 216.44;  175.875; 2.2457e-003
 217.313;  176.75; 2.2633e-003
 218.193;  177.625; 2.2792e-003
 219.07;  178.5; 2.2942e-003
 219.96;  179.375; 2.3101e-003
 220.836;  180.25; 2.3278e-003
 221.706;  181.125; 2.3462e-003
 222.581;  182; 2.3604e-003
 223.452;  182.875; 2.3741e-003
 224.343;  183.75; 2.3956e-003
 225.206;  184.625; 2.4107e-003
 226.071;  185.5; 2.4274e-003
 226.946;  186.375; 2.4437e-003
 227.815;  187.25; 2.4575e-003
 228.674;  188.125; 2.4751e-003
 229.538;  189; 2.4880e-003
 230.406;  189.875; 2.5073e-003
 231.28;  190.75; 2.5228e-003
 232.133;  191.625; 2.5339e-003
 232.997;  192.5; 2.5520e-003
 233.855;  193.375; 2.5662e-003
 234.725;  194.25; 2.5833e-003
 235.606;  195.125; 2.5941e-003
 236.484;  196; 2.6143e-003
 237.363;  196.875; 2.6276e-003
 238.226;  197.75; 2.6430e-003
 239.104;  198.625; 2.6555e-003
 239.975;  199.5; 2.6731e-003
 240.855;  200.375; 2.6903e-003
 241.739;  201.25; 2.7083e-003
 242.605;  202.125; 2.7217e-003
 243.476;  203; 2.7380e-003
 244.355;  203.875; 2.7556e-003
 245.236;  204.75; 2.7732e-003
 246.101;  205.625; 2.7878e-003
 246.986;  206.5; 2.8033e-003
 247.851;  207.375; 2.8183e-003
 248.731;  208.25; 2.8363e-003
 249.609;  209.125; 2.8544e-003
 250.486;  210; 2.8707e-003
 251.364;  210.875; 2.8849e-003
 252.25;  211.75; 2.9085e-003
 253.124;  212.625; 2.9231e-003
 254.003;  213.5; 2.9429e-003
 254.882;  214.375; 2.9609e-003
 255.763;  215.25; 2.9768e-003
 256.637;  216.125; 2.9948e-003
 257.516;  217; 3.0112e-003
 258.39;  217.875; 3.0322e-003
 259.266;  218.75; 3.0498e-003
 260.153;  219.625; 3.0631e-003
 261.034;  220.5; 3.0846e-003
 261.911;  221.375; 3.1040e-003
 262.783;  222.25; 3.1220e-003
 263.665;  223.125; 3.1370e-003
 264.535;  224; 3.1508e-003
 265.413;  224.875; 3.1740e-003
 266.289;  225.75; 3.1886e-003
 267.165;  226.625; 3.2083e-003
 268.038;  227.5; 3.2217e-003
 268.915;  228.375; 3.2401e-003
 269.795;  229.25; 3.2590e-003
 270.663;  230.125; 3.2753e-003
 271.542;  231; 3.2895e-003
 272.42;  231.875; 3.3101e-003
 273.291;  232.75; 3.3260e-003
 274.166;  233.625; 3.3449e-003
 275.038;  234.5; 3.3604e-003
 275.908;  235.375; 3.3793e-003
 276.802;  236.25; 3.3935e-003
 277.669;  237.125; 3.4098e-003
 278.535;  238; 3.4304e-003
 279.417;  238.875; 3.4433e-003
 280.289;  239.75; 3.4674e-003
 281.173;  240.625; 3.4845e-003
 282.036;  241.5; 3.5000e-003
 282.918;  242.375; 3.5150e-003
 283.793;  243.25; 3.5309e-003
 284.669;  244.125; 3.5481e-003
 285.551;  245; 3.5662e-003
 286.427;  245.875; 3.5778e-003
 287.304;  246.75; 3.5984e-003
 288.183;  247.625; 3.6177e-003
 289.057;  248.5; 3.6345e-003
 289.93;  249.375; 3.6499e-003
 290.803;  250.25; 3.6727e-003
 291.674;  251.125; 3.6864e-003
 292.551;  252; 3.7006e-003
 293.43;  252.875; 3.7178e-003
 294.302;  253.75; 3.7358e-003
 295.181;  254.625; 3.7530e-003
 296.052;  255.5; 3.7693e-003
 296.927;  256.375; 3.7852e-003
 297.807;  257.25; 3.7998e-003
 298.672;  258.125; 3.8200e-003
 299.552;  259; 3.8372e-003
 300.424;  259.875; 3.8535e-003
 301.312;  260.75; 3.8681e-003
 302.18;  261.625; 3.8883e-003
 303.057;  262.5; 3.9042e-003
 303.939;  263.375; 3.9150e-003
 304.814;  264.25; 3.9360e-003
 305.689;  265.125; 3.9472e-003
 306.565;  266; 3.9682e-003
 307.437;  266.875; 3.9807e-003
 308.316;  267.75; 3.9970e-003
 309.193;  268.625; 4.0142e-003
 310.066;  269.5; 4.0314e-003
 310.938;  270.375; 4.0438e-003
 311.818;  271.25; 4.0636e-003
 312.687;  272.125; 4.0782e-003
 313.557;  273; 4.0936e-003
 314.432;  273.875; 4.1125e-003
 315.312;  274.75; 4.1280e-003
 316.187;  275.625; 4.1413e-003
 317.059;  276.5; 4.1576e-003
 317.941;  277.375; 4.1731e-003
 318.812;  278.25; 4.1877e-003
 319.691;  279.125; 4.2010e-003
 320.563;  280; 4.2152e-003
 321.447;  280.875; 4.2358e-003
 322.318;  281.75; 4.2530e-003
 323.198;  282.625; 4.2698e-003
 324.067;  283.5; 4.2835e-003
 324.95;  284.375; 4.3037e-003
 325.822;  285.25; 4.3187e-003
 326.693;  286.125; 4.3363e-003
 327.574;  287; 4.3501e-003
 328.437;  287.875; 4.3638e-003
 329.318;  288.75; 4.3793e-003
 330.2;  289.625; 4.4003e-003
 331.078;  290.5; 4.4145e-003
 331.942;  291.375; 4.4321e-003
 332.82;  292.25; 4.4429e-003
 333.69;  293.125; 4.4643e-003
 334.573;  294; 4.4790e-003
 335.448;  294.875; 4.4918e-003
 336.321;  295.75; 4.5107e-003
 337.199;  296.625; 4.5266e-003
 338.074;  297.5; 4.5412e-003
 338.949;  298.375; 4.5567e-003
 339.826;  299.25; 4.5722e-003
 340.699;  300.125; 4.5902e-003
 341.566;  301; 4.6005e-003
 342.449;  301.875; 4.6177e-003
 343.322;  302.75; 4.6284e-003
 344.189;  303.625; 4.6486e-003
 345.073;  304.5; 4.6607e-003
 345.945;  305.375; 4.6765e-003
 346.821;  306.25; 4.6899e-003
 347.695;  307.125; 4.7062e-003
 348.574;  308; 4.7178e-003
 349.444;  308.875; 4.7294e-003
 350.326;  309.75; 4.7461e-003
 351.2;  310.625; 4.7599e-003
 352.079;  311.5; 4.7723e-003
 352.948;  312.375; 4.7852e-003
 353.823;  313.25; 4.7973e-003
 354.697;  314.125; 4.8110e-003
 355.571;  315; 4.8243e-003
 356.449;  315.875; 4.8342e-003
 357.32;  316.75; 4.8462e-003
 358.199;  317.625; 4.8557e-003
 359.068;  318.5; 4.8698e-003
 359.954;  319.375; 4.8806e-003
 360.826;  320.25; 4.8926e-003
 361.705;  321.125; 4.9051e-003
 362.577;  322; 4.9137e-003
 363.458;  322.875; 4.9218e-003
 364.33;  323.75; 4.9356e-003
 365.201;  324.625; 4.9459e-003
 366.078;  325.5; 4.9562e-003
 366.955;  326.375; 4.9631e-003
 367.829;  327.25; 4.9759e-003
 368.704;  328.125; 4.9850e-003
 369.576;  329; 4.9923e-003
 370.459;  329.875; 5.0030e-003
 371.329;  330.75; 5.0125e-003
 372.203;  331.625; 5.0180e-003
 373.083;  332.5; 5.0309e-003
 373.946;  333.375; 5.0318e-003
 374.835;  334.25; 5.0442e-003
 375.694;  335.125; 5.0481e-003
 376.577;  336; 5.0515e-003
 377.459;  336.875; 5.0692e-003
 378.335;  337.75; 5.0743e-003
 379.202;  338.625; 5.0795e-003
 380.076;  339.5; 5.0825e-003
 380.953;  340.375; 5.0906e-003
 381.832;  341.25; 5.0945e-003
 382.707;  342.125; 5.1018e-003
 383.588;  343; 5.1040e-003
 384.454;  343.875; 5.1078e-003
 385.338;  344.75; 5.1164e-003
 386.211;  345.625; 5.1220e-003
 387.084;  346.5; 5.1241e-003
 387.961;  347.375; 5.1284e-003
 388.827;  348.25; 5.1289e-003
 389.7;  349.125; 5.1370e-003
 390.582;  350; 5.1409e-003
 391.453;  350.875; 5.1430e-003
 392.332;  351.75; 5.1482e-003
 393.211;  352.625; 5.1512e-003
 394.071;  353.5; 5.1512e-003
 394.952;  354.375; 5.1538e-003
 395.815;  355.25; 5.1499e-003
 396.707;  356.125; 5.1568e-003
 397.582;  357; 5.1521e-003
 398.459;  357.875; 5.1564e-003
 399.331;  358.75; 5.1624e-003
 400.215;  359.625; 5.1641e-003
 401.08;  360.5; 5.1650e-003
 401.959;  361.375; 5.1667e-003
 402.837;  362.25; 5.1667e-003
 403.708;  363.125; 5.1710e-003
 404.589;  364; 5.1727e-003
 405.464;  364.875; 5.1701e-003
 406.342;  365.75; 5.1735e-003
 407.208;  366.625; 5.1783e-003
 408.083;  367.5; 5.1783e-003
 408.96;  368.375; 5.1817e-003
 409.833;  369.25; 5.1881e-003
 410.71;  370.125; 5.1899e-003
 411.585;  371; 5.1920e-003
 412.459;  371.875; 5.2010e-003
 413.336;  372.75; 5.2006e-003
 414.21;  373.625; 5.2079e-003
 415.091;  374.5; 5.2122e-003
 415.96;  375.375; 5.2204e-003
 416.838;  376.25; 5.2315e-003
 417.714;  377.125; 5.2388e-003
 418.585;  378; 5.2487e-003
 419.461;  378.875; 5.2577e-003
 420.341;  379.75; 5.2603e-003
 421.212;  380.625; 5.2728e-003
 422.09;  381.5; 5.2869e-003
 422.969;  382.375; 5.2977e-003
 423.837;  383.25; 5.3067e-003
 424.715;  384.125; 5.3166e-003
 425.582;  385; 5.3308e-003
 426.46;  385.875; 5.3402e-003
 427.337;  386.75; 5.3578e-003
 428.213;  387.625; 5.3664e-003
 429.096;  388.5; 5.3849e-003
 429.967;  389.375; 5.3982e-003
 430.834;  390.25; 5.4115e-003
 431.713;  391.125; 5.4270e-003
 432.595;  392; 5.4437e-003
 433.472;  392.875; 5.4609e-003
 434.344;  393.75; 5.4759e-003
 435.221;  394.625; 5.4918e-003
 436.091;  395.5; 5.5069e-003
 436.962;  396.375; 5.5206e-003
 437.835;  397.25; 5.5391e-003
 438.713;  398.125; 5.5507e-003
 439.587;  399; 5.5704e-003
 440.462;  399.875; 5.5825e-003
 441.341;  400.75; 5.6014e-003
 442.219;  401.625; 5.6177e-003
 443.093;  402.5; 5.6349e-003
 443.964;  403.375; 5.6465e-003
 444.837;  404.25; 5.6641e-003
 445.709;  405.125; 5.6821e-003
 446.591;  406; 5.6997e-003
 447.465;  406.875; 5.7113e-003
 448.342;  407.75; 5.7311e-003
 449.218;  408.625; 5.7483e-003
 450.088;  409.5; 5.7603e-003
 450.965;  410.375; 5.7809e-003
 451.841;  411.25; 5.7968e-003
 452.716;  412.125; 5.8084e-003
 453.593;  413; 5.8226e-003
 454.476;  413.875; 5.8419e-003
 455.343;  414.75; 5.8617e-003
 456.215;  415.625; 5.8754e-003
 457.091;  416.5; 5.8930e-003
 457.961;  417.375; 5.9072e-003
 458.84;  418.25; 5.9175e-003
 459.712;  419.125; 5.9407e-003
 460.588;  420; 5.9506e-003
 461.469;  420.875; 5.9759e-003
 462.337;  421.75; 5.9871e-003
 463.218;  422.625; 6.0082e-003
 464.101;  423.5; 6.0185e-003
 464.967;  424.375; 6.0348e-003
 465.85;  425.25; 6.0546e-003
 466.713;  426.125; 6.0670e-003
 467.595;  427; 6.0851e-003
 468.472;  427.875; 6.1027e-003
 469.342;  428.75; 6.1156e-003
 470.22;  429.625; 6.1353e-003
 471.1;  430.5; 6.1482e-003
 471.968;  431.375; 6.1705e-003
 472.84;  432.25; 6.1843e-003
 473.718;  433.125; 6.1989e-003
 474.598;  434; 6.2191e-003
 475.477;  434.875; 6.2315e-003
 476.341;  435.75; 6.2487e-003
 477.22;  436.625; 6.2650e-003
 478.1;  437.5; 6.2784e-003
 478.967;  438.375; 6.2981e-003
 479.85;  439.25; 6.3114e-003
 480.719;  440.125; 6.3320e-003
 481.593;  441; 6.3454e-003
 482.464;  441.875; 6.3565e-003
 483.348;  442.75; 6.3776e-003
 484.214;  443.625; 6.3913e-003
 485.094;  444.5; 6.4059e-003
 485.969;  445.375; 6.4210e-003
 486.846;  446.25; 6.4412e-003
 487.716;  447.125; 6.4583e-003
 488.596;  448; 6.4686e-003
 489.471;  448.875; 6.4845e-003
 490.347;  449.75; 6.5060e-003
 491.22;  450.625; 6.5172e-003
 492.09;  451.5; 6.5369e-003
 492.971;  452.375; 6.5460e-003
 493.841;  453.25; 6.5640e-003
 494.718;  454.125; 6.5747e-003
 495.596;  455; 6.5915e-003
 496.46;  455.875; 6.6040e-003
 497.345;  456.75; 6.6207e-003
 498.221;  457.625; 6.6392e-003
 499.102;  458.5; 6.6572e-003
 499.973;  459.375; 6.6692e-003
 500.845;  460.25; 6.6877e-003
 501.719;  461.125; 6.6967e-003
 502.598;  462; 6.7101e-003
 503.472;  462.875; 6.7264e-003
 504.344;  463.75; 6.7410e-003
 505.216;  464.625; 6.7582e-003
 506.095;  465.5; 6.7702e-003
 506.971;  466.375; 6.7839e-003
 507.842;  467.25; 6.8011e-003
 508.72;  468.125; 6.8123e-003
 509.594;  469; 6.8316e-003
 510.475;  469.875; 6.8424e-003
 511.345;  470.75; 6.8574e-003
 512.226;  471.625; 6.8750e-003
 513.094;  472.5; 6.8853e-003
 513.969;  473.375; 6.8922e-003
 514.837;  474.25; 6.9111e-003
 515.715;  475.125; 6.9180e-003
 516.596;  476; 6.9343e-003
 517.471;  476.875; 6.9545e-003
 518.343;  477.75; 6.9669e-003
 519.222;  478.625; 6.9794e-003
 520.1;  479.5; 6.9888e-003
 520.979;  480.375; 7.0047e-003
 521.845;  481.25; 7.0163e-003
 522.723;  482.125; 7.0262e-003
 523.598;  483; 7.0438e-003
 524.471;  483.875; 7.0473e-003
 525.347;  484.75; 7.0679e-003
 526.217;  485.625; 7.0825e-003
 527.094;  486.5; 7.0945e-003
 527.974;  487.375; 7.1074e-003
 528.848;  488.25; 7.1211e-003
 529.725;  489.125; 7.1340e-003
 530.596;  490; 7.1413e-003
 531.475;  490.875; 7.1568e-003
 532.346;  491.75; 7.1654e-003
 533.221;  492.625; 7.1783e-003
 534.09;  493.5; 7.1933e-003
 534.972;  494.375; 7.2049e-003
 535.846;  495.25; 7.2092e-003
 536.723;  496.125; 7.2277e-003
 537.594;  497; 7.2410e-003
 538.47;  497.875; 7.2487e-003
 539.348;  498.75; 7.2646e-003
 540.224;  499.625; 7.2814e-003
 541.088;  500.5; 7.2904e-003
 541.966;  501.375; 7.2908e-003
 542.838;  502.25; 7.3106e-003
 543.728;  503.125; 7.3252e-003
 544.595;  504; 7.3316e-003
 545.474;  504.875; 7.3445e-003
 546.352;  505.75; 7.3600e-003
 547.219;  506.625; 7.3720e-003
 548.097;  507.5; 7.3793e-003
 548.976;  508.375; 7.3956e-003
 549.844;  509.25; 7.4055e-003
 550.725;  510.125; 7.4145e-003
 551.596;  511; 7.4266e-003
 552.47;  511.875; 7.4373e-003
 553.345;  512.75; 7.4472e-003
 554.218;  513.625; 7.4549e-003
 555.09;  514.5; 7.4678e-003
 555.973;  515.375; 7.4777e-003
 556.84;  516.25; 7.4828e-003
 557.726;  517.125; 7.4966e-003
 558.594;  518; 7.5039e-003
 559.465;  518.875; 7.5129e-003
 560.348;  519.75; 7.5253e-003
 561.222;  520.625; 7.5331e-003
 562.094;  521.5; 7.5434e-003
 562.973;  522.375; 7.5516e-003
 563.843;  523.25; 7.5653e-003
 564.719;  524.125; 7.5760e-003
 565.594;  525; 7.5842e-003
 566.468;  525.875; 7.5962e-003
 567.348;  526.75; 7.6078e-003
 568.222;  527.625; 7.6138e-003
 569.09;  528.5; 7.6229e-003
 569.963;  529.375; 7.6306e-003
 570.838;  530.25; 7.6392e-003
 571.727;  531.125; 7.6482e-003
 572.6;  532; 7.6546e-003
 573.469;  532.875; 7.6675e-003
 574.348;  533.75; 7.6770e-003
 575.216;  534.625; 7.6774e-003
 576.094;  535.5; 7.6916e-003
 576.965;  536.375; 7.6972e-003
 577.842;  537.25; 7.7028e-003
 578.716;  538.125; 7.7096e-003
 579.599;  539; 7.7229e-003
 580.473;  539.875; 7.7242e-003
 581.348;  540.75; 7.7328e-003
 582.216;  541.625; 7.7401e-003
 583.102;  542.5; 7.7479e-003
 583.97;  543.375; 7.7543e-003
 584.849;  544.25; 7.7646e-003
 585.722;  545.125; 7.7689e-003
 586.601;  546; 7.7822e-003
 587.467;  546.875; 7.7887e-003
 588.35;  547.75; 7.7964e-003
 589.223;  548.625; 7.7977e-003
 590.102;  549.5; 7.8084e-003
 590.975;  550.375; 7.8067e-003
 591.838;  551.25; 7.8192e-003
 592.728;  552.125; 7.8273e-003
 593.589;  553; 7.8282e-003
 594.47;  553.875; 7.8329e-003
 595.339;  554.75; 7.8402e-003
 596.217;  555.625; 7.8475e-003
 597.094;  556.5; 7.8522e-003
 597.966;  557.375; 7.8531e-003
 598.842;  558.25; 7.8600e-003
 599.72;  559.125; 7.8664e-003
 600.578;  560; 7.8746e-003
 601.464;  560.875; 7.8823e-003
 602.343;  561.75; 7.8823e-003
 603.218;  562.625; 7.8896e-003
 604.1;  563.5; 7.8883e-003
 604.973;  564.375; 7.9003e-003
 605.843;  565.25; 7.9021e-003
 606.724;  566.125; 7.9068e-003
 607.592;  567; 7.9119e-003
 608.472;  567.875; 7.9085e-003
 609.341;  568.75; 7.9197e-003
 610.218;  569.625; 7.9227e-003
 611.087;  570.5; 7.9270e-003
 611.963;  571.375; 7.9274e-003
 612.842;  572.25; 7.9317e-003
 613.714;  573.125; 7.9313e-003
 614.588;  574; 7.9416e-003
 615.466;  574.875; 7.9476e-003
 616.337;  575.75; 7.9519e-003
 617.211;  576.625; 7.9510e-003
 618.091;  577.5; 7.9553e-003
 618.96;  578.375; 7.9592e-003
 619.84;  579.25; 7.9635e-003
 620.717;  580.125; 7.9609e-003
 621.586;  581; 7.9721e-003
 622.467;  581.875; 7.9712e-003
 623.341;  582.75; 7.9777e-003
 624.218;  583.625; 7.9802e-003
 625.083;  584.5; 7.9794e-003
 625.957;  585.375; 7.9824e-003
 626.837;  586.25; 7.9888e-003
 627.71;  587.125; 7.9914e-003
 628.58;  588; 7.9880e-003
 629.46;  588.875; 7.9931e-003
 630.331;  589.75; 7.9923e-003
 631.22;  590.625; 7.9961e-003
 632.086;  591.5; 7.9979e-003
 632.966;  592.375; 7.9970e-003
 633.832;  593.25; 8.0013e-003
 634.719;  594.125; 7.9987e-003
 635.586;  595; 8.0039e-003
 636.462;  595.875; 8.0039e-003
 637.339;  596.75; 8.0009e-003
 638.213;  597.625; 8.0052e-003
 639.093;  598.5; 8.0060e-003
 639.969;  599.375; 8.0013e-003
 640.834;  600.25; 8.0060e-003
 641.708;  601.125; 8.0077e-003
 642.584;  602; 8.0064e-003
 643.457;  602.875; 8.0120e-003
 644.331;  603.75; 8.0077e-003
 645.203;  604.625; 8.0052e-003
 646.082;  605.5; 8.0047e-003
 646.96;  606.375; 8.0064e-003
 647.829;  607.25; 8.0082e-003
 648.714;  608.125; 8.0030e-003
 649.576;  609; 8.0064e-003
 650.454;  609.875; 8.0142e-003
 651.327;  610.75; 8.0159e-003
 652.208;  611.625; 8.0185e-003
 653.091;  612.5; 8.0232e-003
 653.963;  613.375; 8.0180e-003
 654.836;  614.25; 8.0271e-003
 655.713;  615.125; 8.0288e-003
 656.588;  616; 8.0241e-003
 657.458;  616.875; 8.0279e-003
 658.336;  617.75; 8.0296e-003
 659.211;  618.625; 8.0305e-003
 660.085;  619.5; 8.0339e-003
 660.946;  620.375; 8.0284e-003
 661.832;  621.25; 8.0292e-003
 662.703;  622.125; 8.0275e-003
 663.58;  623; 8.0344e-003
 664.461;  623.875; 8.0296e-003
 665.329;  624.75; 8.0262e-003
 666.208;  625.625; 8.0275e-003
 667.078;  626.5; 8.0198e-003
 667.952;  627.375; 8.0215e-003
 668.839;  628.25; 8.0245e-003
 669.704;  629.125; 8.0219e-003
 670.58;  630; 8.0232e-003
 671.453;  630.875; 8.0202e-003
 672.328;  631.75; 8.0219e-003
 673.214;  632.625; 8.0159e-003
 674.083;  633.5; 8.0150e-003
 674.954;  634.375; 8.0129e-003
 675.837;  635.25; 8.0077e-003
 676.707;  636.125; 8.0009e-003
 677.592;  637; 8.0009e-003
 678.456;  637.875; 8.0009e-003
 679.332;  638.75; 7.9970e-003
 680.202;  639.625; 8.0034e-003
 681.078;  640.5; 7.9953e-003
 681.955;  641.375; 7.9948e-003
 682.827;  642.25; 7.9850e-003
 683.7;  643.125; 7.9794e-003
 684.581;  644; 7.9704e-003
 685.45;  644.875; 7.9734e-003
 686.325;  645.75; 7.9742e-003
 687.197;  646.625; 7.9674e-003
 688.072;  647.5; 7.9605e-003
 688.947;  648.375; 7.9489e-003
 689.829;  649.25; 7.9532e-003
 690.702;  650.125; 7.9506e-003
 691.576;  651; 7.9394e-003
 692.463;  651.875; 7.9339e-003
 693.325;  652.75; 7.9248e-003
 694.2;  653.625; 7.9184e-003
 695.085;  654.5; 7.9124e-003
 695.954;  655.375; 7.8922e-003
 696.827;  656.25; 7.8909e-003
 697.71;  657.125; 7.8853e-003
 698.581;  658; 7.8729e-003
 699.46;  658.875; 7.8625e-003
 700.327;  659.75; 7.8561e-003
 701.208;  660.625; 7.8509e-003
 702.08;  661.5; 7.8376e-003
 702.945;  662.375; 7.8312e-003
 703.826;  663.25; 7.8131e-003
 704.71;  664.125; 7.8093e-003
 705.57;  665; 7.7981e-003
 706.448;  665.875; 7.7857e-003
 707.323;  666.75; 7.7706e-003
 708.199;  667.625; 7.7552e-003
 709.073;  668.5; 7.7474e-003
 709.95;  669.375; 7.7397e-003
 710.831;  670.25; 7.7272e-003
 711.701;  671.125; 7.7139e-003
 712.572;  672; 7.6955e-003
 713.45;  672.875; 7.6894e-003
 714.33;  673.75; 7.6710e-003
 715.203;  674.625; 7.6529e-003
 716.072;  675.5; 7.6366e-003
 716.948;  676.375; 7.6263e-003
 717.823;  677.25; 7.6083e-003
 718.701;  678.125; 7.5967e-003
 719.576;  679; 7.5752e-003
 720.449;  679.875; 7.5571e-003
 721.32;  680.75; 7.5365e-003
 722.198;  681.625; 7.5206e-003
 723.07;  682.5; 7.5013e-003
 723.949;  683.375; 7.4841e-003
 724.813;  684.25; 7.4661e-003
 725.701;  685.125; 7.4463e-003
 726.572;  686; 7.4244e-003
 727.451;  686.875; 7.4029e-003
 728.326;  687.75; 7.3845e-003
 729.196;  688.625; 7.3634e-003
 730.074;  689.5; 7.3406e-003
 730.938;  690.375; 7.3179e-003
 731.815;  691.25; 7.2904e-003
 732.691;  692.125; 7.2689e-003
 733.565;  693; 7.2406e-003
 734.442;  693.875; 7.2122e-003
 735.323;  694.75; 7.1851e-003
 736.199;  695.625; 7.1624e-003
 737.067;  696.5; 7.1353e-003
 737.942;  697.375; 7.1061e-003
 738.815;  698.25; 7.0795e-003
 739.692;  699.125; 7.0537e-003
 740.572;  700; 7.0232e-003
 741.453;  700.875; 6.9948e-003
 742.317;  701.75; 6.9596e-003
 743.199;  702.625; 6.9339e-003
 744.067;  703.5; 6.9046e-003
 744.952;  704.375; 6.8750e-003
 745.809;  705.25; 6.8381e-003
 746.688;  706.125; 6.8071e-003
 747.562;  707; 6.7689e-003
 748.437;  707.875; 6.7345e-003
 749.322;  708.75; 6.7019e-003
 750.192;  709.625; 6.6632e-003
 751.072;  710.5; 6.6259e-003
 751.94;  711.375; 6.5885e-003
 752.817;  712.25; 6.5481e-003
 753.69;  713.125; 6.5103e-003
 754.559;  714; 6.4682e-003
 755.441;  714.875; 6.4283e-003
 756.32;  715.75; 6.3896e-003
 757.193;  716.625; 6.3441e-003
 758.063;  717.5; 6.3076e-003
 758.937;  718.375; 6.2672e-003
 759.822;  719.25; 6.2247e-003
 760.687;  720.125; 6.1783e-003
 761.56;  721; 6.1302e-003
 762.428;  721.875; 6.0919e-003
 763.308;  722.75; 6.0451e-003
 764.199;  723.625; 5.9961e-003
 765.064;  724.5; 5.9454e-003
 765.942;  725.375; 5.9029e-003
 766.811;  726.25; 5.8548e-003
 767.688;  727.125; 5.7973e-003
 768.563;  728; 5.7573e-003
 769.436;  728.875; 5.7040e-003
 770.316;  729.75; 5.6542e-003
 771.188;  730.625; 5.5958e-003
 772.07;  731.5; 5.5473e-003
 772.938;  732.375; 5.4927e-003
 773.813;  733.25; 5.4390e-003
 774.689;  734.125; 5.3896e-003
 775.558;  735; 5.3329e-003
 776.438;  735.875; 5.2745e-003
 777.307;  736.75; 5.2212e-003
 778.185;  737.625; 5.1632e-003
 779.055;  738.5; 5.1052e-003
 779.931;  739.375; 5.0404e-003
 780.81;  740.25; 4.9802e-003
 781.684;  741.125; 4.9180e-003
 782.558;  742; 4.8578e-003
 783.439;  742.875; 4.7891e-003
 784.306;  743.75; 4.7328e-003
 785.184;  744.625; 4.6731e-003
 786.059;  745.5; 4.6057e-003
 786.926;  746.375; 4.5395e-003
 787.809;  747.25; 4.4729e-003
 788.677;  748.125; 4.4064e-003
 789.567;  749; 4.3312e-003
 790.434;  749.875; 4.2715e-003
 791.305;  750.75; 4.2032e-003
 792.163;  751.625; 4.1319e-003
 793.054;  752.5; 4.0601e-003
 793.937;  753.375; 3.9880e-003
 794.807;  754.25; 3.9115e-003
 795.696;  755.125; 3.8441e-003
 796.556;  756; 3.7663e-003
 797.432;  756.875; 3.6950e-003
 798.314;  757.75; 3.6168e-003
 799.169;  758.625; 3.5421e-003
 800.061;  759.5; 3.4669e-003
 800.922;  760.375; 3.3879e-003
 801.806;  761.25; 3.3119e-003
 802.682;  762.125; 3.2302e-003
 803.554;  763; 3.1512e-003
 804.436;  763.875; 3.0700e-003
 805.312;  764.75; 2.9906e-003
 806.177;  765.625; 2.9055e-003
 807.06;  766.5; 2.8243e-003
 807.93;  767.375; 2.7410e-003
 808.807;  768.25; 2.6478e-003
 809.682;  769.125; 2.5670e-003
 810.551;  770; 2.4781e-003
 811.437;  770.875; 2.3896e-003
 812.31;  771.75; 2.3003e-003
 813.179;  772.625; 2.2079e-003
 814.054;  773.5; 2.1160e-003
 814.938;  774.375; 2.0241e-003
 815.814;  775.25; 1.9231e-003
 816.681;  776.125; 1.8286e-003
 817.552;  777; 1.7345e-003
 818.431;  777.875; 1.6370e-003
 819.301;  778.75; 1.5357e-003
 820.178;  779.625; 1.4356e-003
 821.053;  780.5; 1.3368e-003
 821.93;  781.375; 1.2345e-003
 822.8;  782.25; 1.1293e-003
 823.677;  783.125; 1.0271e-003
 824.555;  784; 9.2225e-004
 825.428;  784.875; 8.1400e-004
 826.306;  785.75; 7.0876e-004
 827.187;  786.625; 5.9450e-004
 828.057;  787.5; 4.8797e-004
 828.929;  788.375; 3.7801e-004
 829.805;  789.25; 2.6847e-004
 830.677;  790.125; 1.5507e-004
 831.566;  791; 4.6821e-005
 832.432;  791.875;-6.4003e-005
 833.311;  792.75;-1.8084e-004
 834.174;  793.625;-2.9983e-004
 835.051;  794.5;-4.1409e-004
 835.941;  795.375;-5.3222e-004
 836.809;  796.25;-6.5077e-004
 837.687;  797.125;-7.7148e-004
 838.562;  798;-8.8961e-004
 839.436;  798.875;-1.0129e-003
 840.308;  799.75;-1.1353e-003
 841.168;  800.625;-1.2599e-003
 842.051;  801.5;-1.3849e-003
 842.929;  802.375;-1.5082e-003
 843.8;  803.25;-1.6366e-003
 844.671;  804.125;-1.7668e-003
 845.552;  805;-1.8973e-003
 846.425;  805.875;-2.0292e-003
 847.305;  806.75;-2.1641e-003
 848.178;  807.625;-2.2960e-003
 849.05;  808.5;-2.4304e-003
 849.931;  809.375;-2.5674e-003
 850.802;  810.25;-2.7006e-003
 851.681;  811.125;-2.8411e-003
 852.55;  812;-2.9790e-003
 853.429;  812.875;-3.1173e-003
 854.309;  813.75;-3.2582e-003
 855.177;  814.625;-3.3995e-003
 856.043;  815.5;-3.5438e-003
 856.92;  816.375;-3.6873e-003
 857.801;  817.25;-3.8312e-003
 858.673;  818.125;-3.9777e-003
 859.547;  819;-4.1241e-003
 860.432;  819.875;-4.2732e-003
 861.298;  820.75;-4.4227e-003
 862.178;  821.625;-4.5730e-003
 863.048;  822.5;-4.7238e-003
 863.925;  823.375;-4.8784e-003
 864.787;  824.25;-5.0318e-003
 865.66;  825.125;-5.1856e-003
 866.561;  826;-5.3411e-003
 867.416;  826.875;-5.4983e-003
 868.304;  827.75;-5.6585e-003
 869.177;  828.625;-5.8183e-003
 870.048;  829.5;-5.9768e-003
 870.928;  830.375;-6.1387e-003
 871.798;  831.25;-6.3003e-003
 872.676;  832.125;-6.4635e-003
 873.543;  833;-6.6259e-003
 874.424;  833.875;-6.7925e-003
 875.3;  834.75;-6.9613e-003
 876.173;  835.625;-7.1276e-003
 877.044;  836.5;-7.3011e-003
 877.924;  837.375;-7.4725e-003
 878.802;  838.25;-7.6456e-003
 879.665;  839.125;-7.8200e-003
 880.548;  840;-7.9966e-003
 881.417;  840.875;-8.1701e-003
 882.295;  841.75;-8.3484e-003
 883.169;  842.625;-8.5262e-003
 884.045;  843.5;-8.7101e-003
 884.925;  844.375;-8.8922e-003
 885.793;  845.25;-9.0778e-003
 886.676;  846.125;-9.2616e-003
 887.551;  847;-9.4459e-003
 888.409;  847.875;-9.6323e-003
 889.299;  848.75;-9.8205e-003
 890.169;  849.625;-1.0006e-002
 891.046;  850.5;-1.0199e-002
 891.924;  851.375;-1.0390e-002
 892.802;  852.25;-1.0582e-002
 893.665;  853.125;-1.0778e-002
 894.542;  854;-1.0977e-002
 895.427;  854.875;-1.1176e-002
 896.28;  855.75;-1.1375e-002
 897.165;  856.625;-1.1577e-002
 898.043;  857.5;-1.1775e-002
 898.923;  858.375;-1.1978e-002
 899.788;  859.25;-1.2180e-002
 900.667;  860.125;-1.2389e-002
 901.548;  861;-1.2600e-002
 902.415;  861.875;-1.2813e-002
 903.301;  862.75;-1.3020e-002
 904.169;  863.625;-1.3233e-002
 905.045;  864.5;-1.3445e-002
 905.918;  865.375;-1.3662e-002
 906.794;  866.25;-1.3873e-002
 907.67;  867.125;-1.4092e-002
 908.541;  868;-1.4308e-002
 909.426;  868.875;-1.4534e-002
 910.287;  869.75;-1.4756e-002
 911.168;  870.625;-1.4983e-002
 912.042;  871.5;-1.5208e-002
 912.919;  872.375;-1.5433e-002
 913.783;  873.25;-1.5657e-002
 914.668;  874.125;-1.5883e-002
 915.543;  875;-1.6117e-002
 916.417;  875.875;-1.6349e-002
 917.293;  876.75;-1.6579e-002
 918.162;  877.625;-1.6813e-002
 919.035;  878.5;-1.7053e-002
 919.909;  879.375;-1.7289e-002
 920.79;  880.25;-1.7526e-002
 921.664;  881.125;-1.7768e-002
 922.539;  882;-1.8000e-002
 923.408;  882.875;-1.8246e-002
 924.292;  883.75;-1.8481e-002
 925.159;  884.625;-1.8733e-002
 926.045;  885.5;-1.8975e-002
 926.91;  886.375;-1.9222e-002
 927.802;  887.25;-1.9466e-002
 928.666;  888.125;-1.9704e-002
 929.533;  889;-1.9959e-002
 930.416;  889.875;-2.0207e-002
 931.289;  890.75;-2.0451e-002
 932.163;  891.625;-2.0707e-002
 933.041;  892.5;-2.0970e-002
 933.92;  893.375;-2.1220e-002
 934.789;  894.25;-2.1481e-002
 935.664;  895.125;-2.1736e-002
 936.532;  896;-2.1992e-002
 937.42;  896.875;-2.2253e-002
 938.288;  897.75;-2.2506e-002
 939.163;  898.625;-2.2769e-002
 940.034;  899.5;-2.3028e-002
 940.906;  900.375;-2.3285e-002
 941.786;  901.25;-2.3551e-002
 942.662;  902.125;-2.3811e-002
 943.531;  903;-2.4084e-002
 944.411;  903.875;-2.4351e-002
 945.282;  904.75;-2.4613e-002
 946.155;  905.625;-2.4877e-002
 947.038;  906.5;-2.5140e-002
 947.914;  907.375;-2.5413e-002
 948.784;  908.25;-2.5683e-002
 949.665;  909.125;-2.5941e-002
 950.539;  910;-2.6218e-002
 951.418;  910.875;-2.6489e-002
 952.289;  911.75;-2.6751e-002
 953.171;  912.625;-2.7012e-002
 954.04;  913.5;-2.7282e-002
 954.912;  914.375;-2.7547e-002
 955.793;  915.25;-2.7816e-002
 956.658;  916.125;-2.8078e-002
 957.543;  917;-2.8343e-002
 958.418;  917.875;-2.8601e-002
 959.29;  918.75;-2.8871e-002
 960.155;  919.625;-2.9151e-002
 961.033;  920.5;-2.9424e-002
 961.912;  921.375;-2.9695e-002
 962.779;  922.25;-2.9960e-002
 963.644;  923.125;-3.0242e-002
 964.526;  924;-3.0515e-002
 965.399;  924.875;-3.0796e-002
 966.287;  925.75;-3.1058e-002
 967.153;  926.625;-3.1345e-002
 968.033;  927.5;-3.1594e-002
 968.901;  928.375;-3.1867e-002
 969.773;  929.25;-3.2168e-002
 970.656;  930.125;-3.2448e-002
 971.531;  931;-3.2726e-002
 972.41;  931.875;-3.2985e-002
 973.289;  932.75;-3.3269e-002
 974.157;  933.625;-3.3546e-002
 975.036;  934.5;-3.3841e-002
 975.91;  935.375;-3.4128e-002
 976.782;  936.25;-3.4412e-002
 977.651;  937.125;-3.4699e-002
 978.528;  938;-3.4966e-002
 979.407;  938.875;-3.5280e-002
 980.281;  939.75;-3.5567e-002
 981.16;  940.625;-3.5878e-002
 982.034;  941.5;-3.6172e-002
 982.912;  942.375;-3.6474e-002
 983.782;  943.25;-3.6753e-002
 984.664;  944.125;-3.7069e-002
 985.53;  945;-3.7353e-002
 986.409;  945.875;-3.7636e-002
 987.287;  946.75;-3.7958e-002
 988.154;  947.625;-3.8257e-002
 989.026;  948.5;-3.8547e-002
 989.907;  949.375;-3.8836e-002
 990.779;  950.25;-3.9138e-002
 991.661;  951.125;-3.9419e-002
 992.529;  952;-3.9709e-002
 993.404;  952.875;-4.0007e-002
 994.281;  953.75;-4.0305e-002
 995.156;  954.625;-4.0587e-002
 996.03;  955.5;-4.0874e-002
 996.908;  956.375;-4.1166e-002
 997.777;  957.25;-4.1460e-002
 998.663;  958.125;-4.1759e-002
 999.531;  959;-4.2038e-002
1000.4;  959.875;-4.2351e-002
1001.29;  960.75;-4.2641e-002
1002.16;  961.625;-4.2928e-002
1003.03;  962.5;-4.3220e-002
1003.9;  963.375;-4.3491e-002
1004.79;  964.25;-4.3789e-002
1005.66;  965.125;-4.4110e-002
1006.53;  966;-4.4393e-002
1007.4;  966.875;-4.4674e-002
1008.28;  967.75;-4.4998e-002
1009.15;  968.625;-4.5303e-002
1010.02;  969.5;-4.5598e-002
1010.91;  970.375;-4.5887e-002
1011.78;  971.25;-4.6177e-002
1012.66;  972.125;-4.6468e-002
1013.53;  973;-4.6770e-002
1014.41;  973.875;-4.7063e-002
1015.29;  974.75;-4.7369e-002
1016.16;  975.625;-4.7665e-002
1017.03;  976.5;-4.7966e-002
1017.91;  977.375;-4.8266e-002
1018.79;  978.25;-4.8536e-002
1019.66;  979.125;-4.8825e-002
1020.54;  980;-4.9122e-002
1021.41;  980.875;-4.9423e-002
1022.28;  981.75;-4.9726e-002
1023.16;  982.625;-5.0031e-002
1024.03;  983.5;-5.0320e-002
1024.9;  984.375;-5.0628e-002
1025.78;  985.25;-5.0938e-002
1026.66;  986.125;-5.1204e-002
1027.53;  987;-5.1504e-002
1028.41;  987.875;-5.1818e-002
1029.28;  988.75;-5.2113e-002
1030.15;  989.625;-5.2434e-002
1031.02;  990.5;-5.2715e-002
1031.9;  991.375;-5.3032e-002
1032.78;  992.25;-5.3286e-002
1033.65;  993.125;-5.3630e-002
1034.53;  994;-5.3920e-002
1035.4;  994.875;-5.4216e-002
1036.28;  995.75;-5.4514e-002
1037.16;  996.625;-5.4787e-002
1038.03;  997.5;-5.5094e-002
1038.89;  998.375;-5.5377e-002
1039.78;  999.25;-5.5689e-002
1040.65; 1000.12;-5.5958e-002
1041.53; 1001;-5.6281e-002
1042.41; 1001.88;-5.6569e-002
1043.28; 1002.75;-5.6867e-002
1044.15; 1003.62;-5.7131e-002
1045.02; 1004.5;-5.7423e-002
1045.9; 1005.38;-5.7724e-002
1046.77; 1006.25;-5.8030e-002
1047.65; 1007.12;-5.8317e-002
1048.53; 1008;-5.8619e-002
1049.41; 1008.88;-5.8885e-002
1050.28; 1009.75;-5.9177e-002
1051.15; 1010.62;-5.9466e-002
1052.02; 1011.5;-5.9741e-002
1052.9; 1012.38;-6.0055e-002
1053.79; 1013.25;-6.0329e-002
1054.65; 1014.12;-6.0593e-002
1055.52; 1015;-6.0858e-002
1056.4; 1015.88;-6.1165e-002
1057.27; 1016.75;-6.1479e-002
1058.15; 1017.62;-6.1723e-002
1059.03; 1018.5;-6.2025e-002
1059.9; 1019.38;-6.2305e-002
1060.77; 1020.25;-6.2603e-002
1061.64; 1021.12;-6.2854e-002
1062.51; 1022;-6.3165e-002
1063.4; 1022.88;-6.3427e-002
1064.26; 1023.75;-6.3710e-002
1065.16; 1024.62;-6.3938e-002
1066.02; 1025.5;-6.4238e-002
1066.91; 1026.38;-6.4533e-002
1067.78; 1027.25;-6.4820e-002
1068.66; 1028.12;-6.5069e-002
1069.52; 1029;-6.5338e-002
1070.39; 1029.88;-6.5611e-002
1071.27; 1030.75;-6.5902e-002
1072.14; 1031.62;-6.6122e-002
1073.02; 1032.5;-6.6425e-002
1073.9; 1033.38;-6.6684e-002
1074.78; 1034.25;-6.6948e-002
1075.65; 1035.12;-6.7235e-002
1076.52; 1036;-6.7483e-002
1077.39; 1036.88;-6.7742e-002
1078.27; 1037.75;-6.8019e-002
1079.15; 1038.62;-6.8259e-002
1080.03; 1039.5;-6.8522e-002
1080.91; 1040.38;-6.8784e-002
1081.77; 1041.25;-6.9024e-002
1082.64; 1042.12;-6.9293e-002
1083.52; 1043;-6.9511e-002
1084.38; 1043.88;-6.9771e-002
1085.26; 1044.75;-7.0035e-002
1086.14; 1045.62;-7.0301e-002
1087.02; 1046.5;-7.0549e-002
1087.9; 1047.38;-7.0793e-002
1088.78; 1048.25;-7.1010e-002
1089.65; 1049.12;-7.1272e-002
1090.53; 1050;-7.1514e-002
1091.41; 1050.88;-7.1719e-002
1092.26; 1051.75;-7.1955e-002
1093.15; 1052.62;-7.2211e-002
1094.02; 1053.5;-7.2439e-002
1094.89; 1054.38;-7.2689e-002
1095.77; 1055.25;-7.2872e-002
1096.64; 1056.12;-7.3135e-002
1097.52; 1057;-7.3380e-002
1098.4; 1057.88;-7.3594e-002
1099.27; 1058.75;-7.3821e-002
1100.15; 1059.62;-7.4007e-002
1101.03; 1060.5;-7.4268e-002
1101.9; 1061.38;-7.4491e-002
1102.78; 1062.25;-7.4685e-002
1103.66; 1063.12;-7.4887e-002
1104.52; 1064;-7.5120e-002
1105.39; 1064.88;-7.5342e-002
1106.28; 1065.75;-7.5530e-002
1107.14; 1066.62;-7.5766e-002
1108.01; 1067.5;-7.5936e-002
1108.89; 1068.38;-7.6124e-002
1109.76; 1069.25;-7.6312e-002
1110.64; 1070.12;-7.6580e-002
1111.52; 1071;-7.6726e-002
1112.39; 1071.88;-7.6974e-002
1113.26; 1072.75;-7.7145e-002
1114.15; 1073.62;-7.7284e-002
1115.02; 1074.5;-7.7546e-002
1115.9; 1075.38;-7.7735e-002
1116.77; 1076.25;-7.7897e-002
1117.65; 1077.12;-7.8103e-002
1118.52; 1078;-7.8285e-002
1119.39; 1078.88;-7.8479e-002
1120.27; 1079.75;-7.8671e-002
1121.15; 1080.62;-7.8855e-002
1122.03; 1081.5;-7.9020e-002
1122.89; 1082.38;-7.9161e-002
1123.77; 1083.25;-7.9383e-002
1124.64; 1084.12;-7.9531e-002
1125.53; 1085;-7.9712e-002
1126.39; 1085.88;-7.9866e-002
1127.26; 1086.75;-8.0040e-002
1128.14; 1087.62;-8.0181e-002
1129.02; 1088.5;-8.0338e-002
1129.89; 1089.38;-8.0520e-002
1130.78; 1090.25;-8.0632e-002
1131.64; 1091.12;-8.0814e-002
1132.51; 1092;-8.0981e-002
1133.4; 1092.88;-8.1165e-002
1134.27; 1093.75;-8.1219e-002
1135.15; 1094.62;-8.1391e-002
1136.03; 1095.5;-8.1564e-002
1136.9; 1096.38;-8.1744e-002
1137.78; 1097.25;-8.1890e-002
1138.65; 1098.12;-8.1989e-002
1139.52; 1099;-8.2181e-002
1140.39; 1099.88;-8.2301e-002
1141.27; 1100.75;-8.2387e-002
1142.15; 1101.62;-8.2567e-002
1143.03; 1102.5;-8.2687e-002
1143.91; 1103.38;-8.2824e-002
1144.78; 1104.25;-8.2937e-002
1145.65; 1105.12;-8.3080e-002
1146.52; 1106;-8.3191e-002
1147.4; 1106.88;-8.3348e-002
1148.26; 1107.75;-8.3435e-002
1149.14; 1108.62;-8.3573e-002
1150.03; 1109.5;-8.3703e-002
1150.89; 1110.38;-8.3826e-002
1151.77; 1111.25;-8.3900e-002
1152.64; 1112.12;-8.3979e-002
1153.53; 1113;-8.4150e-002
1154.4; 1113.88;-8.4215e-002
1155.27; 1114.75;-8.4377e-002
1156.16; 1115.62;-8.4491e-002
1157.02; 1116.5;-8.4562e-002
1157.88; 1117.38;-8.4688e-002
1158.78; 1118.25;-8.4763e-002
1159.65; 1119.12;-8.4908e-002
1160.52; 1120;-8.5003e-002
1161.4; 1120.88;-8.5079e-002
1162.27; 1121.75;-8.5169e-002
1163.15; 1122.62;-8.5298e-002
1164.02; 1123.5;-8.5385e-002
1164.9; 1124.38;-8.5486e-002
1165.77; 1125.25;-8.5541e-002
1166.64; 1126.12;-8.5641e-002
1167.51; 1127;-8.5739e-002
1168.38; 1127.88;-8.5809e-002
1169.26; 1128.75;-8.5926e-002
1170.15; 1129.62;-8.5975e-002
1171.02; 1130.5;-8.6016e-002
1171.89; 1131.38;-8.6117e-002
1172.77; 1132.25;-8.6258e-002
1173.65; 1133.12;-8.6273e-002
1174.55; 1134;-8.6389e-002
1175.4; 1134.88;-8.6485e-002
1176.28; 1135.75;-8.6524e-002
1177.14; 1136.62;-8.6605e-002
1178.01; 1137.5;-8.6680e-002
1178.89; 1138.38;-8.6763e-002
1179.77; 1139.25;-8.6815e-002
1180.65; 1140.12;-8.6868e-002
1181.52; 1141;-8.6967e-002
1182.4; 1141.88;-8.7031e-002
1183.27; 1142.75;-8.7083e-002
1184.15; 1143.62;-8.7167e-002
1185.02; 1144.5;-8.7232e-002
1185.89; 1145.38;-8.7220e-002
1186.76; 1146.25;-8.7289e-002
1187.64; 1147.12;-8.7400e-002
1188.52; 1148;-8.7442e-002
1189.39; 1148.88;-8.7504e-002
1190.28; 1149.75;-8.7536e-002
1191.14; 1150.62;-8.7616e-002
1192.02; 1151.5;-8.7663e-002
1192.88; 1152.38;-8.7665e-002
1193.75; 1153.25;-8.7714e-002
1194.64; 1154.12;-8.7812e-002
1195.51; 1155;-8.7875e-002
1196.4; 1155.88;-8.7923e-002
1197.25; 1156.75;-8.7972e-002
1198.15; 1157.62;-8.8005e-002
1199.02; 1158.5;-8.8005e-002
1199.89; 1159.38;-8.8091e-002
1200.77; 1160.25;-8.8116e-002
1201.64; 1161.12;-8.8217e-002
1202.52; 1162;-8.8217e-002
1203.39; 1162.88;-8.8270e-002
1204.27; 1163.75;-8.8301e-002
1205.14; 1164.62;-8.8355e-002
1206.03; 1165.5;-8.8402e-002
1206.87; 1166.38;-8.8424e-002
1207.76; 1167.25;-8.8483e-002
1208.63; 1168.12;-8.8433e-002
1209.51; 1169;-8.8541e-002
1210.39; 1169.88;-8.8582e-002
1211.26; 1170.75;-8.8610e-002
1212.14; 1171.62;-8.8622e-002
1213.02; 1172.5;-8.8682e-002
1213.89; 1173.38;-8.8647e-002
1214.77; 1174.25;-8.8730e-002
1215.64; 1175.12;-8.8741e-002
1216.51; 1176;-8.8781e-002
1217.39; 1176.88;-8.8769e-002
1218.27; 1177.75;-8.8812e-002
1219.15; 1178.62;-8.8853e-002
1220.01; 1179.5;-8.8881e-002
1220.9; 1180.38;-8.8875e-002
1221.76; 1181.25;-8.8894e-002
1222.63; 1182.12;-8.8906e-002
1223.51; 1183;-8.8953e-002
1224.4; 1183.88;-8.8979e-002
1225.25; 1184.75;-8.9007e-002
1226.14; 1185.62;-8.8997e-002
1227.02; 1186.5;-8.9028e-002
1227.9; 1187.38;-8.9003e-002
1228.76; 1188.25;-8.9040e-002
1229.63; 1189.12;-8.9045e-002
1230.5; 1190;-8.9063e-002
1231.38; 1190.88;-8.9065e-002
1232.26; 1191.75;-8.9122e-002
1233.14; 1192.62;-8.9106e-002
1234.01; 1193.5;-8.9179e-002
1234.88; 1194.38;-8.9139e-002
1235.75; 1195.25;-8.9196e-002
1236.64; 1196.12;-8.9206e-002
1237.5; 1197;-8.9242e-002
1238.39; 1197.88;-8.9220e-002
1239.25; 1198.75;-8.9214e-002
1240.14; 1199.62;-8.9228e-002
1241.02; 1200.5;-8.9235e-002
1241.89; 1201.38;-8.9232e-002
1242.76; 1202.25;-8.9124e-002
1243.63; 1203.12;-8.9182e-002
1244.51; 1204;-8.9143e-002
1245.39; 1204.88;-8.9095e-002
1246.26; 1205.75;-8.9067e-002
1247.14; 1206.62;-8.8980e-002
1248.02; 1207.5;-8.9006e-002
1248.88; 1208.38;-8.8910e-002
1249.76; 1209.25;-8.8933e-002
1250.65; 1210.12;-8.8915e-002
1251.51; 1211;-8.9025e-002
1252.39; 1211.88;-8.9046e-002
1253.26; 1212.75;-8.9071e-002
1254.12; 1213.62;-8.9077e-002
1255.01; 1214.5;-8.9180e-002
1255.89; 1215.38;-8.9256e-002
1256.78; 1216.25;-8.9259e-002
1257.64; 1217.12;-8.9323e-002
1258.52; 1218;-8.9339e-002
1259.38; 1218.88;-8.9339e-002
1260.26; 1219.75;-8.9357e-002
1261.14; 1220.62;-8.9384e-002
1262.02; 1221.5;-8.9384e-002
1262.9; 1222.38;-8.9477e-002
1263.77; 1223.25;-8.9512e-002
1264.64; 1224.12;-8.9478e-002
1265.52; 1225;-8.9598e-002
1266.38; 1225.88;-8.9599e-002
1267.27; 1226.75;-8.9560e-002
1268.14; 1227.62;-8.9621e-002
1269.01; 1228.5;-8.9649e-002
1269.9; 1229.38;-8.9637e-002
1270.77; 1230.25;-8.9671e-002
1271.65; 1231.12;-8.9651e-002
1272.51; 1232;-8.9678e-002
1273.39; 1232.88;-8.9668e-002
1274.25; 1233.75;-8.9669e-002
1275.13; 1234.62;-8.9621e-002
1276; 1235.5;-8.9607e-002
1276.9; 1236.38;-8.9605e-002
1277.76; 1237.25;-8.9564e-002
1278.64; 1238.12;-8.9543e-002
1279.52; 1239;-8.9496e-002
1280.39; 1239.88;-8.9412e-002
1281.27; 1240.75;-8.9222e-002
1282.13; 1241.62;-8.9227e-002
1283.03; 1242.5;-8.9077e-002
1283.9; 1243.38;-8.8957e-002
1284.76; 1244.25;-8.9073e-002
1285.63; 1245.12;-8.9004e-002
1286.5; 1246;-8.9057e-002
1287.38; 1246.88;-8.8972e-002
1288.26; 1247.75;-8.8797e-002
1289.14; 1248.62;-8.8691e-002
1290.03; 1249.5;-8.8726e-002
1290.88; 1250.38;-8.8723e-002
1291.76; 1251.25;-8.8606e-002
1292.62; 1252.12;-8.8478e-002
1293.52; 1253;-8.8408e-002
1294.39; 1253.88;-8.8389e-002
1295.27; 1254.75;-8.8321e-002
1296.14; 1255.62;-8.8211e-002
1297.03; 1256.5;-8.8206e-002
1297.9; 1257.38;-8.8054e-002
1298.77; 1258.25;-8.8033e-002
1299.64; 1259.12;-8.7973e-002
1300.51; 1260;-8.7958e-002
1301.38; 1260.88;-8.7964e-002
1302.27; 1261.75;-8.7811e-002
1303.14; 1262.62;-8.7641e-002
1304.03; 1263.5;-8.7641e-002
1304.89; 1264.38;-8.7637e-002
1305.76; 1265.25;-8.7543e-002
1306.64; 1266.12;-8.7425e-002
1307.52; 1267;-8.7354e-002
1308.37; 1267.88;-8.7101e-002
1309.26; 1268.75;-8.6894e-002
1310.13; 1269.62;-8.6763e-002
1311.01; 1270.5;-8.6582e-002
1311.88; 1271.38;-8.6387e-002
1312.76; 1272.25;-8.6198e-002
1313.63; 1273.12;-8.6000e-002
1314.51; 1274;-8.5856e-002
1315.38; 1274.88;-8.5609e-002
1316.27; 1275.75;-8.5336e-002
1317.14; 1276.62;-8.4969e-002
1318.01; 1277.5;-8.4485e-002
1318.88; 1278.38;-8.4060e-002
1319.77; 1279.25;-8.3489e-002
1320.64; 1280.12;-8.3085e-002
1321.53; 1281;-8.2469e-002
1322.4; 1281.88;-8.1794e-002
1323.27; 1282.75;-8.1373e-002
1324.14; 1283.62;-8.0757e-002
1325; 1284.5;-8.0204e-002
1325.91; 1285.38;-7.9997e-002
1326.77; 1286.25;-7.9089e-002
1327.64; 1287.12;-7.8439e-002
1328.52; 1288;-7.8119e-002
1329.4; 1288.88;-7.7613e-002
1330.25; 1289.75;-7.7558e-002
1331.14; 1290.62;-7.6787e-002
1332.01; 1291.5;-7.7130e-002
1332.88; 1292.38;-7.7403e-002
1333.77; 1293.25;-7.7659e-002
1334.63; 1294.12;-7.7681e-002
1335.5; 1295;-7.7365e-002
1336.4; 1295.88;-7.6746e-002
1337.26; 1296.75;-7.4964e-002
1338.14; 1297.62;-7.4439e-002
1339.01; 1298.5;-7.4198e-002
1339.88; 1299.38;-7.3988e-002
1340.78; 1300.25;-7.3966e-002
1341.65; 1301.12;-7.3750e-002
1342.51; 1302;-7.3848e-002
1343.4; 1302.88;-7.3778e-002
1344.26; 1303.75;-7.3763e-002
1345.15; 1304.62;-7.3327e-002
1346.02; 1305.5;-7.2700e-002
1346.89; 1306.38;-7.2646e-002
1347.76; 1307.25;-7.2679e-002
1348.64; 1308.12;-7.2605e-002
1349.51; 1309;-7.2387e-002
1350.38; 1309.88;-7.2235e-002
1350.51; 1310;-7.2232e-002