File: 000402_K06_10_1335_Air-static.txt
#FILE:                 ;000402_K06_10_1335_Air-static.sle
#FORMAT:               ;NETZSCH5
#IDENTITY:             ;000402
#DECIMAL:              ;POINT
#SEPARATOR:            ;SEMICOLON
#MTYPE:                ;DIL
#MSUBTYPE:             ;
#INSTRUMENT:           ;NETZSCH DIL 402 C
#PROJECT:              ;
#DATE/TIME:            ;28.06.2021 11:45:13
#CORR. FILE:           ;
#LABORATORY:           ;НМ
#OPERATOR:             ;Орлов Н.
#REMARK:               ;
#SAMPLE:               ;K06_10
#SAMPLE LENGTH /mm:    ;3.540
#MATERIAL:             ;стандартный образец
#MEASMODE:             ;Standard Expansion
#PURGE GAS 1:          ;
#FLOW RATE 1 /(ml/min):;0
#CORR. CODE:           ;000
#RANGE:                ;40.0/10.0(K/мин)/1335.0
#SEGMENT:              ;S1/1

##Temp./°C;Time/min;dL/Lo
  40.34100;0.0000e+000; 0.0000e+000
  40.34800;9.0000e-002; 0.0000e+000
  40.36600;    0.18000;-2.8249e-006
  40.38700;    0.27000;-3.1780e-006
  40.44000;    0.36000;-1.7655e-006
  40.52800;    0.45000;-4.5904e-006
  40.67300;    0.54000;-4.2373e-006
  40.88700;    0.63000;-5.6497e-006
  41.12100;    0.72000;-8.1215e-006
  41.40600;    0.81000;-1.2006e-005
  41.70500;    0.90000;-1.4831e-005
  42.01800;    0.99000;-1.8715e-005
  42.32400;    1.08000;-2.1893e-005
  42.64000;    1.17000;-2.7895e-005
  42.95100;    1.26000;-3.3545e-005
  43.26200;    1.35000;-3.8136e-005
  43.58400;    1.44000;-4.5198e-005
  43.91200;    1.53000;-5.0494e-005
  44.25400;    1.62000;-5.8263e-005
  44.61800;    1.71000;-6.2853e-005
  45.01300;    1.80000;-7.0975e-005
  45.43800;    1.89000;-8.0155e-005
  45.89100;    1.98000;-8.5452e-005
  46.37000;    2.07000;-9.4280e-005
  46.87600;    2.16000;-1.0452e-004
  47.40400;    2.25000;-1.1194e-004
  47.92200;    2.34000;-1.2359e-004
  48.45800;    2.43000;-1.3242e-004
  48.99800;    2.52000;-1.4336e-004
  49.56000;    2.61000;-1.5395e-004
  50.12300;    2.70000;-1.6702e-004
  50.72200;    2.79000;-1.7726e-004
  51.31700;    2.88000;-1.9032e-004
  51.94600;    2.97000;-2.0304e-004
  52.59100;    3.06000;-2.1610e-004
  53.24800;    3.15000;-2.2917e-004
  53.94700;    3.24000;-2.4435e-004
  54.64000;    3.33000;-2.5706e-004
  55.36200;    3.42000;-2.7189e-004
  56.08400;    3.51000;-2.8672e-004
  56.82500;    3.60000;-3.0120e-004
  57.58600;    3.69000;-3.1638e-004
  58.34100;    3.78000;-3.3227e-004
  59.13000;    3.87000;-3.5099e-004
  59.92200;    3.96000;-3.6547e-004
  60.74000;    4.05000;-3.8277e-004
  61.56400;    4.14000;-4.0254e-004
  62.40300;    4.23000;-4.1879e-004
  63.26300;    4.32000;-4.3785e-004
  64.12400;    4.41000;-4.5516e-004
  64.98900;    4.50000;-4.7352e-004
  65.89800;    4.59000;-4.9259e-004
  66.81400;    4.68000;-5.1130e-004
  67.73200;    4.77000;-5.3001e-004
  68.66500;    4.86000;-5.4979e-004
  69.59500;    4.95000;-5.7097e-004
  70.55500;    5.04000;-5.9004e-004
  71.52000;    5.13000;-6.1123e-004
  72.49700;    5.22000;-6.3030e-004
  73.48700;    5.31000;-6.5396e-004
  74.49700;    5.40000;-6.7267e-004
  75.49700;    5.49000;-6.9562e-004
  76.52700;    5.58000;-7.1751e-004
  77.55200;    5.67000;-7.3799e-004
  78.59900;    5.76000;-7.6059e-004
  79.64500;    5.85000;-7.8390e-004
  80.70000;    5.94000;-8.0403e-004
  81.77800;    6.03000;-8.2804e-004
  82.84600;    6.12000;-8.4887e-004
  83.93300;    6.21000;-8.7218e-004
  85.01600;    6.30000;-8.9442e-004
  86.11400;    6.39000;-9.1773e-004
  87.22100;    6.48000;-9.4244e-004
  88.32800;    6.57000;-9.6469e-004
  89.44300;    6.66000;-9.8729e-004
  90.56500;    6.75000;-1.0092e-003
  91.68200;    6.84000;-1.0328e-003
  92.83300;    6.93000;-1.0554e-003
  93.94000;    7.02000;-1.0812e-003
  95.08500;    7.11000;-1.1035e-003
  96.22800;    7.20000;-1.1292e-003
  97.38000;    7.29000;-1.1508e-003
  98.52800;    7.38000;-1.1730e-003
  99.69400;    7.47000;-1.1963e-003
 100.829;    7.56000;-1.2193e-003
 101.987;    7.65000;-1.2429e-003
 103.151;    7.74000;-1.2662e-003
 104.322;    7.83000;-1.2878e-003
 105.49;    7.92000;-1.3104e-003
 106.653;    8.01000;-1.3340e-003
 107.819;    8.10000;-1.3552e-003
 108.998;    8.19000;-1.3775e-003
 110.169;    8.28000;-1.3997e-003
 111.344;    8.37000;-1.4209e-003
 112.528;    8.46000;-1.4424e-003
 113.703;    8.55000;-1.4629e-003
 114.877;    8.64000;-1.4823e-003
 116.065;    8.73000;-1.5028e-003
 117.252;    8.82000;-1.5219e-003
 118.433;    8.91000;-1.5413e-003
 119.618;    9.00000;-1.5621e-003
 120.799;    9.09000;-1.5787e-003
 121.971;    9.18000;-1.5971e-003
 123.164;    9.27000;-1.6144e-003
 124.348;    9.36000;-1.6321e-003
 125.531;    9.45000;-1.6472e-003
 126.704;    9.54000;-1.6631e-003
 127.877;    9.63000;-1.6783e-003
 129.072;    9.72000;-1.6946e-003
 130.24;    9.81000;-1.7080e-003
 131.422;    9.90000;-1.7214e-003
 132.594;    9.99000;-1.7355e-003
 133.758;   10.08000;-1.7482e-003
 134.926;   10.17000;-1.7613e-003
 136.1;   10.26000;-1.7733e-003
 137.253;   10.35000;-1.7843e-003
 138.434;   10.44000;-1.7959e-003
 139.586;   10.53000;-1.8051e-003
 140.729;   10.62000;-1.8160e-003
 141.889;   10.71000;-1.8242e-003
 143.041;   10.80000;-1.8337e-003
 144.181;   10.89000;-1.8422e-003
 145.298;   10.98000;-1.8492e-003
 146.428;   11.07000;-1.8573e-003
 147.541;   11.16000;-1.8630e-003
 148.646;   11.25000;-1.8690e-003
 149.734;   11.34000;-1.8754e-003
 150.844;   11.43000;-1.8796e-003
 151.919;   11.52000;-1.8824e-003
 153.015;   11.61000;-1.8888e-003
 154.089;   11.70000;-1.8905e-003
 155.151;   11.79000;-1.8920e-003
 156.231;   11.88000;-1.8944e-003
 157.299;   11.97000;-1.8962e-003
 158.367;   12.06000;-1.8951e-003
 159.424;   12.15000;-1.8965e-003
 160.489;   12.24000;-1.8955e-003
 161.546;   12.33000;-1.8944e-003
 162.607;   12.42000;-1.8934e-003
 163.65;   12.51000;-1.8902e-003
 164.699;   12.60000;-1.8884e-003
 165.736;   12.69000;-1.8842e-003
 166.791;   12.78000;-1.8799e-003
 167.83;   12.87000;-1.8761e-003
 168.877;   12.96000;-1.8711e-003
 169.901;   13.05000;-1.8665e-003
 170.941;   13.14000;-1.8602e-003
 171.974;   13.23000;-1.8545e-003
 172.998;   13.32000;-1.8478e-003
 174.036;   13.41000;-1.8422e-003
 175.052;   13.50000;-1.8337e-003
 176.074;   13.59000;-1.8277e-003
 177.095;   13.68000;-1.8185e-003
 178.113;   13.77000;-1.8107e-003
 179.138;   13.86000;-1.8037e-003
 180.142;   13.95000;-1.7970e-003
 181.146;   14.04000;-1.7857e-003
 182.163;   14.13000;-1.7758e-003
 183.166;   14.22000;-1.7684e-003
 184.162;   14.31000;-1.7574e-003
 185.174;   14.40000;-1.7479e-003
 186.168;   14.49000;-1.7359e-003
 187.158;   14.58000;-1.7274e-003
 188.163;   14.67000;-1.7165e-003
 189.149;   14.76000;-1.7041e-003
 190.147;   14.85000;-1.6917e-003
 191.125;   14.94000;-1.6808e-003
 192.108;   15.03000;-1.6663e-003
 193.09;   15.12000;-1.6547e-003
 194.064;   15.21000;-1.6409e-003
 195.053;   15.30000;-1.6285e-003
 196.019;   15.39000;-1.6176e-003
 196.997;   15.48000;-1.6031e-003
 197.965;   15.57000;-1.5907e-003
 198.933;   15.66000;-1.5780e-003
 199.897;   15.75000;-1.5643e-003
 200.852;   15.84000;-1.5501e-003
 201.835;   15.93000;-1.5364e-003
 202.799;   16.02000;-1.5215e-003
 203.756;   16.11000;-1.5064e-003
 204.705;   16.20000;-1.4936e-003
 205.666;   16.29000;-1.4785e-003
 206.615;   16.38000;-1.4633e-003
 207.565;   16.47000;-1.4495e-003
 208.519;   16.56000;-1.4343e-003
 209.461;   16.65000;-1.4174e-003
 210.414;   16.74000;-1.4018e-003
 211.361;   16.83000;-1.3881e-003
 212.315;   16.92000;-1.3743e-003
 213.262;   17.01000;-1.3563e-003
 214.199;   17.10000;-1.3404e-003
 215.144;   17.19000;-1.3259e-003
 216.087;   17.28000;-1.3097e-003
 217.016;   17.37000;-1.2941e-003
 217.959;   17.46000;-1.2761e-003
 218.883;   17.55000;-1.2613e-003
 219.824;   17.64000;-1.2433e-003
 220.751;   17.73000;-1.2285e-003
 221.683;   17.82000;-1.2112e-003
 222.603;   17.91000;-1.1942e-003
 223.535;   18.00000;-1.1773e-003
 224.455;   18.09000;-1.1617e-003
 225.37;   18.18000;-1.1427e-003
 226.285;   18.27000;-1.1275e-003
 227.197;   18.36000;-1.1102e-003
 228.11;   18.45000;-1.0992e-003
 229.01;   18.54000;-1.0900e-003
 229.916;   18.63000;-1.0756e-003
 230.828;   18.72000;-1.0586e-003
 231.739;   18.81000;-1.0417e-003
 232.633;   18.90000;-1.0237e-003
 233.55;   18.99000;-1.0078e-003
 234.45;   19.08000;-9.8905e-004
 235.363;   19.17000;-9.7211e-004
 236.248;   19.26000;-9.5445e-004
 237.164;   19.35000;-9.3715e-004
 238.07;   19.44000;-9.1985e-004
 238.979;   19.53000;-9.0078e-004
 239.866;   19.62000;-8.8242e-004
 240.779;   19.71000;-8.6264e-004
 241.697;   19.80000;-8.4428e-004
 242.592;   19.89000;-8.2521e-004
 243.489;   19.98000;-8.0826e-004
 244.4;   20.07000;-7.9167e-004
 245.309;   20.16000;-7.7507e-004
 246.22;   20.25000;-7.5636e-004
 247.124;   20.34000;-7.4011e-004
 248.034;   20.43000;-7.2140e-004
 248.943;   20.52000;-6.9986e-004
 249.853;   20.61000;-6.8079e-004
 250.758;   20.70000;-6.6208e-004
 251.666;   20.79000;-6.4160e-004
 252.576;   20.88000;-6.2500e-004
 253.491;   20.97000;-6.0311e-004
 254.398;   21.06000;-5.8616e-004
 255.303;   21.15000;-5.6603e-004
 256.213;   21.24000;-5.4626e-004
 257.128;   21.33000;-5.2825e-004
 258.042;   21.42000;-5.1095e-004
 258.949;   21.51000;-4.9188e-004
 259.865;   21.60000;-4.7140e-004
 260.78;   21.69000;-4.5198e-004
 261.695;   21.78000;-4.3185e-004
 262.615;   21.87000;-4.1208e-004
 263.54;   21.96000;-3.9336e-004
 264.473;   22.05000;-3.7465e-004
 265.392;   22.14000;-3.5346e-004
 266.327;   22.23000;-3.3298e-004
 267.267;   22.32000;-3.1285e-004
 268.202;   22.41000;-2.9237e-004
 269.143;   22.50000;-2.7154e-004
 270.085;   22.59000;-2.5141e-004
 271.031;   22.68000;-2.3023e-004
 271.976;   22.77000;-2.1081e-004
 272.937;   22.86000;-1.8962e-004
 273.889;   22.95000;-1.6984e-004
 274.851;   23.04000;-1.4760e-004
 275.819;   23.13000;-1.2853e-004
 276.774;   23.22000;-1.0593e-004
 277.742;   23.31000;-8.6511e-005
 278.695;   23.40000;-6.4972e-005
 279.664;   23.49000;-4.4138e-005
 280.629;   23.58000;-2.4364e-005
 281.587;   23.67000;-1.7655e-006
 282.556;   23.76000; 1.9068e-005
 283.524;   23.85000; 3.7783e-005
 284.471;   23.94000; 5.8263e-005
 285.421;   24.03000; 7.5565e-005
 286.376;   24.12000; 9.6751e-005
 287.319;   24.21000; 1.1582e-004
 288.24;   24.30000; 1.3418e-004
 289.171;   24.39000; 1.5431e-004
 290.084;   24.48000; 1.7620e-004
 290.992;   24.57000; 1.9527e-004
 291.908;   24.66000; 2.1292e-004
 292.79;   24.75000; 2.3411e-004
 293.683;   24.84000; 2.5353e-004
 294.569;   24.93000; 2.7295e-004
 295.439;   25.02000; 2.9237e-004
 296.293;   25.11000; 3.1038e-004
 297.136;   25.20000; 3.3016e-004
 297.982;   25.29000; 3.4852e-004
 298.8;   25.38000; 3.7076e-004
 299.606;   25.47000; 3.8842e-004
 300.415;   25.56000; 4.0713e-004
 301.229;   25.65000; 4.2726e-004
 302.054;   25.74000; 4.4315e-004
 302.863;   25.83000; 4.6186e-004
 303.621;   25.92000; 4.7740e-004
 304.416;   26.01000; 4.9364e-004
 305.188;   26.10000; 5.1412e-004
 305.959;   26.19000; 5.3178e-004
 306.717;   26.28000; 5.4944e-004
 307.47;   26.37000; 5.6603e-004
 308.215;   26.46000; 5.8333e-004
 308.945;   26.55000; 6.0134e-004
 309.697;   26.64000; 6.1688e-004
 310.425;   26.73000; 6.3453e-004
 311.144;   26.82000; 6.5184e-004
 311.87;   26.91000; 6.6596e-004
 312.579;   27.00000; 6.8362e-004
 313.297;   27.09000; 7.0127e-004
 314.02;   27.18000; 7.1610e-004
 314.738;   27.27000; 7.2987e-004
 315.444;   27.36000; 7.4718e-004
 316.18;   27.45000; 7.6307e-004
 316.89;   27.54000; 7.7436e-004
 317.63;   27.63000; 7.8920e-004
 318.374;   27.72000; 8.0650e-004
 319.128;   27.81000; 8.1780e-004
 319.894;   27.90000; 8.3227e-004
 320.672;   27.99000; 8.4569e-004
 321.455;   28.08000; 8.5805e-004
 322.243;   28.17000; 8.6864e-004
 323.065;   28.26000; 8.8312e-004
 323.888;   28.35000; 8.9583e-004
 324.724;   28.44000; 9.0466e-004
 325.575;   28.53000; 9.1631e-004
 326.422;   28.62000; 9.2726e-004
 327.296;   28.71000; 9.4068e-004
 328.188;   28.80000; 9.5092e-004
 329.079;   28.89000; 9.6045e-004
 329.961;   28.98000; 9.7211e-004
 330.877;   29.07000; 9.8340e-004
 331.77;   29.16000; 9.9223e-004
 332.683;   29.25000; 1.0007e-003
 333.624;   29.34000; 1.0138e-003
 334.545;   29.43000; 1.0208e-003
 335.477;   29.52000; 1.0353e-003
 336.414;   29.61000; 1.0431e-003
 337.341;   29.70000; 1.0533e-003
 338.283;   29.79000; 1.0664e-003
 339.224;   29.88000; 1.0717e-003
 340.161;   29.97000; 1.0823e-003
 341.115;   30.06000; 1.0946e-003
 342.05;   30.15000; 1.1035e-003
 342.991;   30.24000; 1.1176e-003
 343.93;   30.33000; 1.1257e-003
 344.876;   30.42000; 1.1367e-003
 345.817;   30.51000; 1.1483e-003
 346.753;   30.60000; 1.1628e-003
 347.7;   30.69000; 1.1737e-003
 348.633;   30.78000; 1.1854e-003
 349.58;   30.87000; 1.1963e-003
 350.521;   30.96000; 1.2105e-003
 351.452;   31.05000; 1.2203e-003
 352.401;   31.14000; 1.2334e-003
 353.333;   31.23000; 1.2465e-003
 354.276;   31.32000; 1.2585e-003
 355.209;   31.41000; 1.2708e-003
 356.14;   31.50000; 1.2828e-003
 357.081;   31.59000; 1.2956e-003
 358.016;   31.68000; 1.3072e-003
 358.945;   31.77000; 1.3206e-003
 359.887;   31.86000; 1.3302e-003
 360.814;   31.95000; 1.3460e-003
 361.743;   32.04000; 1.3588e-003
 362.677;   32.13000; 1.3690e-003
 363.606;   32.22000; 1.3835e-003
 364.541;   32.31000; 1.3965e-003
 365.466;   32.40000; 1.4103e-003
 366.403;   32.49000; 1.4244e-003
 367.321;   32.58000; 1.4371e-003
 368.248;   32.67000; 1.4488e-003
 369.181;   32.76000; 1.4668e-003
 370.095;   32.85000; 1.4788e-003
 371.035;   32.94000; 1.4912e-003
 371.951;   33.03000; 1.5071e-003
 372.88;   33.12000; 1.5205e-003
 373.801;   33.21000; 1.5318e-003
 374.734;   33.30000; 1.5491e-003
 375.651;   33.39000; 1.5643e-003
 376.569;   33.48000; 1.5798e-003
 377.495;   33.57000; 1.5918e-003
 378.404;   33.66000; 1.6056e-003
 379.318;   33.75000; 1.6197e-003
 380.251;   33.84000; 1.6363e-003
 381.181;   33.93000; 1.6494e-003
 382.086;   34.02000; 1.6631e-003
 383;   34.11000; 1.6776e-003
 383.917;   34.20000; 1.6903e-003
 384.832;   34.29000; 1.7055e-003
 385.747;   34.38000; 1.7193e-003
 386.661;   34.47000; 1.7348e-003
 387.581;   34.56000; 1.7461e-003
 388.486;   34.65000; 1.7638e-003
 389.396;   34.74000; 1.7772e-003
 390.324;   34.83000; 1.7924e-003
 391.242;   34.92000; 1.8083e-003
 392.144;   35.01000; 1.8192e-003
 393.054;   35.10000; 1.8358e-003
 393.959;   35.19000; 1.8496e-003
 394.875;   35.28000; 1.8637e-003
 395.778;   35.37000; 1.8778e-003
 396.694;   35.46000; 1.8930e-003
 397.603;   35.55000; 1.9050e-003
 398.517;   35.64000; 1.9191e-003
 399.426;   35.73000; 1.9319e-003
 400.331;   35.82000; 1.9456e-003
 401.239;   35.91000; 1.9576e-003
 402.148;   36.00000; 1.9732e-003
 403.046;   36.09000; 1.9852e-003
 403.964;   36.18000; 1.9993e-003
 404.865;   36.27000; 2.0134e-003
 405.785;   36.36000; 2.0237e-003
 406.673;   36.45000; 2.0353e-003
 407.593;   36.54000; 2.0473e-003
 408.49;   36.63000; 2.0618e-003
 409.393;   36.72000; 2.0752e-003
 410.303;   36.81000; 2.0858e-003
 411.214;   36.90000; 2.0985e-003
 412.116;   36.99000; 2.1105e-003
 413.024;   37.08000; 2.1186e-003
 413.926;   37.17000; 2.1285e-003
 414.838;   37.26000; 2.1434e-003
 415.731;   37.35000; 2.1550e-003
 416.635;   37.44000; 2.1653e-003
 417.545;   37.53000; 2.1744e-003
 418.441;   37.62000; 2.1854e-003
 419.35;   37.71000; 2.1963e-003
 420.247;   37.80000; 2.2048e-003
 421.15;   37.89000; 2.2154e-003
 422.054;   37.98000; 2.2267e-003
 422.957;   38.07000; 2.2306e-003
 423.847;   38.16000; 2.2436e-003
 424.763;   38.25000; 2.2525e-003
 425.66;   38.34000; 2.2620e-003
 426.556;   38.43000; 2.2701e-003
 427.457;   38.52000; 2.2754e-003
 428.359;   38.61000; 2.2871e-003
 429.252;   38.70000; 2.2934e-003
 430.156;   38.79000; 2.3001e-003
 431.054;   38.88000; 2.3100e-003
 431.964;   38.97000; 2.3189e-003
 432.858;   39.06000; 2.3284e-003
 433.755;   39.15000; 2.3319e-003
 434.66;   39.24000; 2.3418e-003
 435.546;   39.33000; 2.3475e-003
 436.457;   39.42000; 2.3556e-003
 437.355;   39.51000; 2.3602e-003
 438.255;   39.60000; 2.3683e-003
 439.157;   39.69000; 2.3757e-003
 440.052;   39.78000; 2.3814e-003
 440.941;   39.87000; 2.3874e-003
 441.85;   39.96000; 2.3941e-003
 442.746;   40.05000; 2.4029e-003
 443.65;   40.14000; 2.4061e-003
 444.543;   40.23000; 2.4153e-003
 445.434;   40.32000; 2.4227e-003
 446.331;   40.41000; 2.4290e-003
 447.24;   40.50000; 2.4304e-003
 448.136;   40.59000; 2.4410e-003
 449.035;   40.68000; 2.4474e-003
 449.922;   40.77000; 2.4545e-003
 450.824;   40.86000; 2.4605e-003
 451.725;   40.95000; 2.4650e-003
 452.62;   41.04000; 2.4742e-003
 453.522;   41.13000; 2.4816e-003
 454.408;   41.22000; 2.4891e-003
 455.313;   41.31000; 2.4979e-003
 456.204;   41.40000; 2.5049e-003
 457.113;   41.49000; 2.5113e-003
 457.99;   41.58000; 2.5198e-003
 458.888;   41.67000; 2.5268e-003
 459.799;   41.76000; 2.5371e-003
 460.689;   41.85000; 2.5452e-003
 461.586;   41.94000; 2.5537e-003
 462.474;   42.03000; 2.5611e-003
 463.378;   42.12000; 2.5724e-003
 464.269;   42.21000; 2.5809e-003
 465.172;   42.30000; 2.5907e-003
 466.071;   42.39000; 2.6017e-003
 466.965;   42.48000; 2.6088e-003
 467.868;   42.57000; 2.6197e-003
 468.763;   42.66000; 2.6307e-003
 469.654;   42.75000; 2.6434e-003
 470.554;   42.84000; 2.6525e-003
 471.44;   42.93000; 2.6645e-003
 472.351;   43.02000; 2.6762e-003
 473.237;   43.11000; 2.6896e-003
 474.144;   43.20000; 2.7009e-003
 475.036;   43.29000; 2.7147e-003
 475.924;   43.38000; 2.7274e-003
 476.82;   43.47000; 2.7383e-003
 477.727;   43.56000; 2.7475e-003
 478.614;   43.65000; 2.7645e-003
 479.518;   43.74000; 2.7765e-003
 480.418;   43.83000; 2.7874e-003
 481.31;   43.92000; 2.7998e-003
 482.215;   44.01000; 2.8164e-003
 483.109;   44.10000; 2.8316e-003
 484.006;   44.19000; 2.8443e-003
 484.904;   44.28000; 2.8598e-003
 485.807;   44.37000; 2.8718e-003
 486.699;   44.46000; 2.8881e-003
 487.6;   44.55000; 2.9029e-003
 488.493;   44.64000; 2.9135e-003
 489.389;   44.73000; 2.9301e-003
 490.29;   44.82000; 2.9435e-003
 491.19;   44.91000; 2.9597e-003
 492.087;   45.00000; 2.9732e-003
 492.982;   45.09000; 2.9887e-003
 493.869;   45.18000; 3.0042e-003
 494.774;   45.27000; 3.0162e-003
 495.668;   45.36000; 3.0357e-003
 496.562;   45.45000; 3.0487e-003
 497.473;   45.54000; 3.0650e-003
 498.366;   45.63000; 3.0791e-003
 499.273;   45.72000; 3.0957e-003
 500.168;   45.81000; 3.1073e-003
 501.062;   45.90000; 3.1225e-003
 501.966;   45.99000; 3.1391e-003
 502.857;   46.08000; 3.1550e-003
 503.756;   46.17000; 3.1702e-003
 504.657;   46.26000; 3.1836e-003
 505.541;   46.35000; 3.2009e-003
 506.443;   46.44000; 3.2165e-003
 507.348;   46.53000; 3.2299e-003
 508.255;   46.62000; 3.2454e-003
 509.142;   46.71000; 3.2602e-003
 510.048;   46.80000; 3.2779e-003
 510.943;   46.89000; 3.2941e-003
 511.839;   46.98000; 3.3100e-003
 512.735;   47.07000; 3.3220e-003
 513.634;   47.16000; 3.3415e-003
 514.534;   47.25000; 3.3549e-003
 515.43;   47.34000; 3.3686e-003
 516.336;   47.43000; 3.3849e-003
 517.229;   47.52000; 3.4011e-003
 518.123;   47.61000; 3.4191e-003
 519.023;   47.70000; 3.4301e-003
 519.924;   47.79000; 3.4495e-003
 520.819;   47.88000; 3.4619e-003
 521.716;   47.97000; 3.4795e-003
 522.621;   48.06000; 3.4951e-003
 523.503;   48.15000; 3.5099e-003
 524.406;   48.24000; 3.5244e-003
 525.311;   48.33000; 3.5406e-003
 526.208;   48.42000; 3.5558e-003
 527.107;   48.51000; 3.5703e-003
 528.019;   48.60000; 3.5833e-003
 528.91;   48.69000; 3.6006e-003
 529.804;   48.78000; 3.6155e-003
 530.709;   48.87000; 3.6314e-003
 531.603;   48.96000; 3.6451e-003
 532.498;   49.05000; 3.6596e-003
 533.394;   49.14000; 3.6758e-003
 534.298;   49.23000; 3.6893e-003
 535.203;   49.32000; 3.7037e-003
 536.092;   49.41000; 3.7239e-003
 536.996;   49.50000; 3.7362e-003
 537.889;   49.59000; 3.7514e-003
 538.794;   49.68000; 3.7701e-003
 539.699;   49.77000; 3.7867e-003
 540.59;   49.86000; 3.8001e-003
 541.481;   49.95000; 3.8164e-003
 542.399;   50.04000; 3.8326e-003
 543.282;   50.13000; 3.8485e-003
 544.18;   50.22000; 3.8662e-003
 545.085;   50.31000; 3.8817e-003
 545.994;   50.40000; 3.8965e-003
 546.877;   50.49000; 3.9131e-003
 547.776;   50.58000; 3.9276e-003
 548.683;   50.67000; 3.9396e-003
 549.576;   50.76000; 3.9590e-003
 550.471;   50.85000; 3.9760e-003
 551.377;   50.94000; 3.9901e-003
 552.284;   51.03000; 4.0092e-003
 553.175;   51.12000; 4.0233e-003
 554.078;   51.21000; 4.0378e-003
 554.978;   51.30000; 4.0537e-003
 555.87;   51.39000; 4.0667e-003
 556.774;   51.48000; 4.0847e-003
 557.674;   51.57000; 4.1006e-003
 558.578;   51.66000; 4.1172e-003
 559.469;   51.75000; 4.1282e-003
 560.377;   51.84000; 4.1441e-003
 561.284;   51.93000; 4.1603e-003
 562.172;   52.02000; 4.1769e-003
 563.066;   52.11000; 4.1882e-003
 563.972;   52.20000; 4.2090e-003
 564.872;   52.29000; 4.2225e-003
 565.762;   52.38000; 4.2320e-003
 566.669;   52.47000; 4.2486e-003
 567.562;   52.56000; 4.2670e-003
 568.462;   52.65000; 4.2807e-003
 569.356;   52.74000; 4.2927e-003
 570.259;   52.83000; 4.3100e-003
 571.171;   52.92000; 4.3252e-003
 572.063;   53.01000; 4.3390e-003
 572.957;   53.10000; 4.3517e-003
 573.86;   53.19000; 4.3683e-003
 574.749;   53.28000; 4.3803e-003
 575.656;   53.37000; 4.3969e-003
 576.555;   53.46000; 4.4135e-003
 577.446;   53.55000; 4.4237e-003
 578.35;   53.64000; 4.4417e-003
 579.246;   53.73000; 4.4534e-003
 580.147;   53.82000; 4.4675e-003
 581.038;   53.91000; 4.4799e-003
 581.937;   54.00000; 4.4961e-003
 582.838;   54.09000; 4.5102e-003
 583.74;   54.18000; 4.5244e-003
 584.629;   54.27000; 4.5293e-003
 585.535;   54.36000; 4.5508e-003
 586.427;   54.45000; 4.5632e-003
 587.339;   54.54000; 4.5784e-003
 588.228;   54.63000; 4.5929e-003
 589.128;   54.72000; 4.6049e-003
 590.026;   54.81000; 4.6197e-003
 590.929;   54.90000; 4.6307e-003
 591.819;   54.99000; 4.6462e-003
 592.721;   55.08000; 4.6603e-003
 593.608;   55.17000; 4.6730e-003
 594.5;   55.26000; 4.6861e-003
 595.413;   55.35000; 4.6963e-003
 596.298;   55.44000; 4.7129e-003
 597.201;   55.53000; 4.7256e-003
 598.106;   55.62000; 4.7362e-003
 599;   55.71000; 4.7486e-003
 599.903;   55.80000; 4.7624e-003
 600.801;   55.89000; 4.7733e-003
 601.694;   55.98000; 4.7853e-003
 602.597;   56.07000; 4.8008e-003
 603.497;   56.16000; 4.8129e-003
 604.396;   56.25000; 4.8224e-003
 605.286;   56.34000; 4.8358e-003
 606.189;   56.43000; 4.8503e-003
 607.077;   56.52000; 4.8609e-003
 607.986;   56.61000; 4.8715e-003
 608.877;   56.70000; 4.8821e-003
 609.782;   56.79000; 4.8962e-003
 610.675;   56.88000; 4.9061e-003
 611.573;   56.97000; 4.9181e-003
 612.468;   57.06000; 4.9262e-003
 613.369;   57.15000; 4.9375e-003
 614.267;   57.24000; 4.9509e-003
 615.171;   57.33000; 4.9647e-003
 616.062;   57.42000; 4.9749e-003
 616.964;   57.51000; 4.9859e-003
 617.856;   57.60000; 4.9986e-003
 618.751;   57.69000; 5.0088e-003
 619.653;   57.78000; 5.0173e-003
 620.555;   57.87000; 5.0286e-003
 621.444;   57.96000; 5.0427e-003
 622.344;   58.05000; 5.0501e-003
 623.242;   58.14000; 5.0636e-003
 624.135;   58.23000; 5.0706e-003
 625.036;   58.32000; 5.0823e-003
 625.933;   58.41000; 5.0946e-003
 626.837;   58.50000; 5.1052e-003
 627.729;   58.59000; 5.1151e-003
 628.63;   58.68000; 5.1243e-003
 629.53;   58.77000; 5.1352e-003
 630.415;   58.86000; 5.1427e-003
 631.321;   58.95000; 5.1504e-003
 632.213;   59.04000; 5.1631e-003
 633.116;   59.13000; 5.1755e-003
 634.007;   59.22000; 5.1822e-003
 634.922;   59.31000; 5.1910e-003
 635.802;   59.40000; 5.2006e-003
 636.706;   59.49000; 5.2083e-003
 637.599;   59.58000; 5.2112e-003
 638.482;   59.67000; 5.2242e-003
 639.392;   59.76000; 5.2313e-003
 640.282;   59.85000; 5.2383e-003
 641.19;   59.94000; 5.2465e-003
 642.088;   60.03000; 5.2564e-003
 642.988;   60.12000; 5.2638e-003
 643.867;   60.21000; 5.2701e-003
 644.772;   60.30000; 5.2737e-003
 645.675;   60.39000; 5.2761e-003
 646.565;   60.48000; 5.2888e-003
 647.456;   60.57000; 5.2934e-003
 648.358;   60.66000; 5.2956e-003
 649.251;   60.75000; 5.3072e-003
 650.155;   60.84000; 5.3121e-003
 651.053;   60.93000; 5.3171e-003
 651.942;   61.02000; 5.3234e-003
 652.846;   61.11000; 5.3256e-003
 653.741;   61.20000; 5.3347e-003
 654.629;   61.29000; 5.3400e-003
 655.529;   61.38000; 5.3453e-003
 656.428;   61.47000; 5.3422e-003
 657.32;   61.56000; 5.3503e-003
 658.221;   61.65000; 5.3545e-003
 659.125;   61.74000; 5.3573e-003
 660.019;   61.83000; 5.3602e-003
 660.918;   61.92000; 5.3669e-003
 661.824;   62.01000; 5.3697e-003
 662.714;   62.10000; 5.3718e-003
 663.613;   62.19000; 5.3785e-003
 664.518;   62.28000; 5.3796e-003
 665.415;   62.37000; 5.3941e-003
 666.308;   62.46000; 5.4036e-003
 667.21;   62.55000; 5.4142e-003
 668.116;   62.64000; 5.4234e-003
 669.022;   62.73000; 5.4393e-003
 669.918;   62.82000; 5.4509e-003
 670.815;   62.91000; 5.4658e-003
 671.722;   63.00000; 5.4742e-003
 672.614;   63.09000; 5.4820e-003
 673.507;   63.18000; 5.4915e-003
 674.422;   63.27000; 5.5028e-003
 675.317;   63.36000; 5.5124e-003
 676.216;   63.45000; 5.5166e-003
 677.127;   63.54000; 5.5272e-003
 678.013;   63.63000; 5.5321e-003
 678.91;   63.72000; 5.5385e-003
 679.811;   63.81000; 5.5456e-003
 680.713;   63.90000; 5.5498e-003
 681.605;   63.99000; 5.5597e-003
 682.503;   64.08000; 5.5625e-003
 683.403;   64.17000; 5.5727e-003
 684.293;   64.26000; 5.5784e-003
 685.181;   64.35000; 5.5851e-003
 686.1;   64.44000; 5.5908e-003
 686.995;   64.53000; 5.5943e-003
 687.89;   64.62000; 5.6003e-003
 688.778;   64.71000; 5.6066e-003
 689.69;   64.80000; 5.6105e-003
 690.575;   64.89000; 5.6169e-003
 691.455;   64.98000; 5.6218e-003
 692.367;   65.07000; 5.6232e-003
 693.264;   65.16000; 5.6317e-003
 694.16;   65.25000; 5.6377e-003
 695.058;   65.34000; 5.6416e-003
 695.95;   65.43000; 5.6444e-003
 696.855;   65.52000; 5.6490e-003
 697.746;   65.61000; 5.6547e-003
 698.631;   65.70000; 5.6561e-003
 699.541;   65.79000; 5.6631e-003
 700.449;   65.88000; 5.6684e-003
 701.338;   65.97000; 5.6727e-003
 702.226;   66.06000; 5.6741e-003
 703.121;   66.15000; 5.6780e-003
 704.028;   66.24000; 5.6819e-003
 704.917;   66.33000; 5.6783e-003
 705.824;   66.42000; 5.6875e-003
 706.711;   66.51000; 5.6932e-003
 707.614;   66.60000; 5.6939e-003
 708.514;   66.69000; 5.6981e-003
 709.402;   66.78000; 5.6977e-003
 710.302;   66.87000; 5.7041e-003
 711.194;   66.96000; 5.7052e-003
 712.097;   67.05000; 5.7009e-003
 712.99;   67.14000; 5.7052e-003
 713.903;   67.23000; 5.7119e-003
 714.78;   67.32000; 5.7080e-003
 715.689;   67.41000; 5.7147e-003
 716.591;   67.50000; 5.7133e-003
 717.481;   67.59000; 5.7165e-003
 718.38;   67.68000; 5.7186e-003
 719.272;   67.77000; 5.7207e-003
 720.163;   67.86000; 5.7193e-003
 721.082;   67.95000; 5.7225e-003
 721.969;   68.04000; 5.7218e-003
 722.859;   68.13000; 5.7221e-003
 723.77;   68.22000; 5.7214e-003
 724.657;   68.31000; 5.7232e-003
 725.551;   68.40000; 5.7196e-003
 726.447;   68.49000; 5.7221e-003
 727.335;   68.58000; 5.7225e-003
 728.234;   68.67000; 5.7179e-003
 729.137;   68.76000; 5.7196e-003
 730.039;   68.85000; 5.7186e-003
 730.934;   68.94000; 5.7136e-003
 731.833;   69.03000; 5.7126e-003
 732.715;   69.12000; 5.7168e-003
 733.614;   69.21000; 5.7136e-003
 734.531;   69.30000; 5.7136e-003
 735.421;   69.39000; 5.7016e-003
 736.316;   69.48000; 5.7069e-003
 737.218;   69.57000; 5.7073e-003
 738.117;   69.66000; 5.7020e-003
 739.006;   69.75000; 5.7002e-003
 739.91;   69.84000; 5.6960e-003
 740.801;   69.93000; 5.6939e-003
 741.707;   70.02000; 5.6914e-003
 742.6;   70.11000; 5.6854e-003
 743.496;   70.20000; 5.6829e-003
 744.394;   70.29000; 5.6815e-003
 745.299;   70.38000; 5.6730e-003
 746.193;   70.47000; 5.6656e-003
 747.081;   70.56000; 5.6660e-003
 747.979;   70.65000; 5.6621e-003
 748.885;   70.74000; 5.6561e-003
 749.774;   70.83000; 5.6494e-003
 750.673;   70.92000; 5.6455e-003
 751.576;   71.01000; 5.6398e-003
 752.472;   71.10000; 5.6317e-003
 753.362;   71.19000; 5.6268e-003
 754.262;   71.28000; 5.6197e-003
 755.164;   71.37000; 5.6148e-003
 756.054;   71.46000; 5.6063e-003
 756.96;   71.55000; 5.5978e-003
 757.859;   71.64000; 5.5879e-003
 758.746;   71.73000; 5.5837e-003
 759.651;   71.82000; 5.5731e-003
 760.549;   71.91000; 5.5607e-003
 761.451;   72.00000; 5.5547e-003
 762.336;   72.09000; 5.5448e-003
 763.237;   72.18000; 5.5385e-003
 764.13;   72.27000; 5.5293e-003
 765.019;   72.36000; 5.5152e-003
 765.938;   72.45000; 5.5074e-003
 766.813;   72.54000; 5.4944e-003
 767.709;   72.63000; 5.4841e-003
 768.617;   72.72000; 5.4746e-003
 769.504;   72.81000; 5.4583e-003
 770.417;   72.90000; 5.4520e-003
 771.321;   72.99000; 5.4364e-003
 772.2;   73.08000; 5.4255e-003
 773.11;   73.17000; 5.4103e-003
 773.998;   73.26000; 5.3994e-003
 774.893;   73.35000; 5.3792e-003
 775.796;   73.44000; 5.3732e-003
 776.706;   73.53000; 5.3556e-003
 777.582;   73.62000; 5.3422e-003
 778.49;   73.71000; 5.3280e-003
 779.381;   73.80000; 5.3097e-003
 780.278;   73.89000; 5.2941e-003
 781.18;   73.98000; 5.2730e-003
 782.072;   74.07000; 5.2578e-003
 782.971;   74.16000; 5.2436e-003
 783.869;   74.25000; 5.2256e-003
 784.767;   74.34000; 5.2059e-003
 785.662;   74.43000; 5.1886e-003
 786.569;   74.52000; 5.1635e-003
 787.465;   74.61000; 5.1472e-003
 788.356;   74.70000; 5.1243e-003
 789.256;   74.79000; 5.1045e-003
 790.163;   74.88000; 5.0837e-003
 791.062;   74.97000; 5.0632e-003
 791.954;   75.06000; 5.0357e-003
 792.845;   75.15000; 5.0173e-003
 793.76;   75.24000; 4.9968e-003
 794.648;   75.33000; 4.9707e-003
 795.548;   75.42000; 4.9477e-003
 796.446;   75.51000; 4.9216e-003
 797.353;   75.60000; 4.8976e-003
 798.233;   75.69000; 4.8690e-003
 799.139;   75.78000; 4.8411e-003
 800.046;   75.87000; 4.8189e-003
 800.937;   75.96000; 4.7927e-003
 801.843;   76.05000; 4.7638e-003
 802.727;   76.14000; 4.7302e-003
 803.627;   76.23000; 4.7062e-003
 804.527;   76.32000; 4.6720e-003
 805.429;   76.41000; 4.6423e-003
 806.316;   76.50000; 4.6141e-003
 807.228;   76.59000; 4.5858e-003
 808.121;   76.68000; 4.5508e-003
 809.02;   76.77000; 4.5201e-003
 809.915;   76.86000; 4.4855e-003
 810.812;   76.95000; 4.4470e-003
 811.708;   77.04000; 4.4128e-003
 812.616;   77.13000; 4.3761e-003
 813.502;   77.22000; 4.3376e-003
 814.414;   77.31000; 4.2899e-003
 815.309;   77.40000; 4.2525e-003
 816.198;   77.49000; 4.2150e-003
 817.101;   77.58000; 4.1755e-003
 817.991;   77.67000; 4.1338e-003
 818.898;   77.76000; 4.0936e-003
 819.798;   77.85000; 4.0533e-003
 820.71;   77.94000; 4.0131e-003
 821.602;   78.03000; 3.9689e-003
 822.5;   78.12000; 3.9230e-003
 823.39;   78.21000; 3.8761e-003
 824.296;   78.30000; 3.8358e-003
 825.194;   78.39000; 3.7910e-003
 826.088;   78.48000; 3.7454e-003
 826.997;   78.57000; 3.6984e-003
 827.888;   78.66000; 3.6501e-003
 828.786;   78.75000; 3.6013e-003
 829.684;   78.84000; 3.5540e-003
 830.588;   78.93000; 3.5021e-003
 831.479;   79.02000; 3.4523e-003
 832.373;   79.11000; 3.3987e-003
 833.277;   79.20000; 3.3485e-003
 834.172;   79.29000; 3.2959e-003
 835.072;   79.38000; 3.2394e-003
 835.982;   79.47000; 3.1808e-003
 836.867;   79.56000; 3.1285e-003
 837.768;   79.65000; 3.0745e-003
 838.663;   79.74000; 3.0141e-003
 839.569;   79.83000; 2.9569e-003
 840.466;   79.92000; 2.8980e-003
 841.36;   80.01000; 2.8344e-003
 842.258;   80.10000; 2.7754e-003
 843.152;   80.19000; 2.7087e-003
 844.051;   80.28000; 2.6490e-003
 844.952;   80.37000; 2.5826e-003
 845.849;   80.46000; 2.5215e-003
 846.745;   80.55000; 2.4552e-003
 847.643;   80.64000; 2.3874e-003
 848.532;   80.73000; 2.3164e-003
 849.441;   80.82000; 2.2528e-003
 850.331;   80.91000; 2.1864e-003
 851.243;   81.00000; 2.1133e-003
 852.129;   81.09000; 2.0452e-003
 853.039;   81.18000; 1.9739e-003
 853.926;   81.27000; 1.9029e-003
 854.83;   81.36000; 1.8319e-003
 855.727;   81.45000; 1.7588e-003
 856.62;   81.54000; 1.6875e-003
 857.518;   81.63000; 1.6126e-003
 858.42;   81.72000; 1.5332e-003
 859.308;   81.81000; 1.4534e-003
 860.211;   81.90000; 1.3775e-003
 861.106;   81.99000; 1.2970e-003
 862.002;   82.08000; 1.2193e-003
 862.909;   82.17000; 1.1370e-003
 863.795;   82.26000; 1.0547e-003
 864.695;   82.35000; 9.7211e-004
 865.602;   82.44000; 8.8418e-004
 866.486;   82.53000; 8.0509e-004
 867.392;   82.62000; 7.1857e-004
 868.295;   82.71000; 6.3171e-004
 869.179;   82.80000; 5.4061e-004
 870.078;   82.89000; 4.5092e-004
 870.979;   82.98000; 3.5770e-004
 871.878;   83.07000; 2.6801e-004
 872.776;   83.16000; 1.7408e-004
 873.677;   83.25000; 8.1215e-005
 874.575;   83.34000;-1.2712e-005
 875.469;   83.43000;-1.0699e-004
 876.372;   83.52000;-2.0198e-004
 877.266;   83.61000;-2.9767e-004
 878.164;   83.70000;-3.9583e-004
 879.05;   83.79000;-4.9718e-004
 879.957;   83.88000;-5.9605e-004
 880.864;   83.97000;-7.0127e-004
 881.748;   84.06000;-8.0014e-004
 882.653;   84.15000;-9.0396e-004
 883.561;   84.24000;-1.0071e-003
 884.45;   84.33000;-1.1098e-003
 885.347;   84.42000;-1.2175e-003
 886.247;   84.51000;-1.3217e-003
 887.131;   84.60000;-1.4301e-003
 888.037;   84.69000;-1.5388e-003
 888.929;   84.78000;-1.6455e-003
 889.83;   84.87000;-1.7542e-003
 890.736;   84.96000;-1.8644e-003
 891.624;   85.05000;-1.9742e-003
 892.536;   85.14000;-2.0862e-003
 893.428;   85.23000;-2.1981e-003
 894.318;   85.32000;-2.3097e-003
 895.227;   85.41000;-2.4223e-003
 896.127;   85.50000;-2.5357e-003
 897.016;   85.59000;-2.6490e-003
 897.92;   85.68000;-2.7638e-003
 898.805;   85.77000;-2.8799e-003
 899.711;   85.86000;-2.9951e-003
 900.608;   85.95000;-3.1109e-003
 901.504;   86.04000;-3.2295e-003
 902.405;   86.13000;-3.3468e-003
 903.312;   86.22000;-3.4640e-003
 904.205;   86.31000;-3.5837e-003
 905.103;   86.40000;-3.7041e-003
 905.986;   86.49000;-3.8266e-003
 906.903;   86.58000;-3.9481e-003
 907.801;   86.67000;-4.0699e-003
 908.699;   86.76000;-4.1924e-003
 909.591;   86.85000;-4.3164e-003
 910.494;   86.94000;-4.4393e-003
 911.391;   87.03000;-4.5643e-003
 912.292;   87.12000;-4.6886e-003
 913.17;   87.21000;-4.8153e-003
 914.08;   87.30000;-4.9442e-003
 914.977;   87.39000;-5.0720e-003
 915.885;   87.48000;-5.2027e-003
 916.775;   87.57000;-5.3330e-003
 917.674;   87.66000;-5.4626e-003
 918.571;   87.75000;-5.5964e-003
 919.47;   87.84000;-5.7302e-003
 920.376;   87.93000;-5.8641e-003
 921.262;   88.02000;-5.9968e-003
 922.167;   88.11000;-6.1338e-003
 923.062;   88.20000;-6.2684e-003
 923.961;   88.29000;-6.4015e-003
 924.854;   88.38000;-6.5381e-003
 925.748;   88.47000;-6.6748e-003
 926.649;   88.56000;-6.8079e-003
 927.554;   88.65000;-6.9442e-003
 928.445;   88.74000;-7.0787e-003
 929.338;   88.83000;-7.2161e-003
 930.253;   88.92000;-7.3496e-003
 931.131;   89.01000;-7.4852e-003
 932.033;   89.10000;-7.6243e-003
 932.927;   89.19000;-7.7631e-003
 933.834;   89.28000;-7.9040e-003
 934.727;   89.37000;-8.0441e-003
 935.617;   89.46000;-8.1819e-003
 936.522;   89.55000;-8.3217e-003
 937.425;   89.64000;-8.4629e-003
 938.317;   89.73000;-8.6031e-003
 939.217;   89.82000;-8.7444e-003
 940.118;   89.91000;-8.8845e-003
 941.002;   90.00000;-9.0265e-003
 941.912;   90.09000;-9.1667e-003
 942.789;   90.18000;-9.3069e-003
 943.698;   90.27000;-9.4530e-003
 944.602;   90.36000;-9.5946e-003
 945.484;   90.45000;-9.7422e-003
 946.389;   90.54000;-9.8884e-003
 947.294;   90.63000;-1.0029e-002
 948.176;   90.72000;-1.0177e-002
 949.084;   90.81000;-1.0325e-002
 949.973;   90.90000;-1.0472e-002
 950.871;   90.99000;-1.0613e-002
 951.782;   91.08000;-1.0766e-002
 952.666;   91.17000;-1.0912e-002
 953.572;   91.26000;-1.1064e-002
 954.467;   91.35000;-1.1214e-002
 955.365;   91.44000;-1.1365e-002
 956.261;   91.53000;-1.1515e-002
 957.159;   91.62000;-1.1671e-002
 958.056;   91.71000;-1.1824e-002
 958.965;   91.80000;-1.1977e-002
 959.85;   91.89000;-1.2133e-002
 960.754;   91.98000;-1.2286e-002
 961.653;   92.07000;-1.2442e-002
 962.546;   92.16000;-1.2599e-002
 963.448;   92.25000;-1.2758e-002
 964.339;   92.34000;-1.2919e-002
 965.244;   92.43000;-1.3076e-002
 966.143;   92.52000;-1.3240e-002
 967.036;   92.61000;-1.3404e-002
 967.938;   92.70000;-1.3569e-002
 968.835;   92.79000;-1.3731e-002
 969.722;   92.88000;-1.3895e-002
 970.632;   92.97000;-1.4052e-002
 971.518;   93.06000;-1.4224e-002
 972.42;   93.15000;-1.4391e-002
 973.325;   93.24000;-1.4553e-002
 974.22;   93.33000;-1.4718e-002
 975.117;   93.42000;-1.4884e-002
 976.023;   93.51000;-1.5060e-002
 976.92;   93.60000;-1.5230e-002
 977.815;   93.69000;-1.5400e-002
 978.716;   93.78000;-1.5564e-002
 979.614;   93.87000;-1.5736e-002
 980.524;   93.96000;-1.5907e-002
 981.402;   94.05000;-1.6082e-002
 982.312;   94.14000;-1.6255e-002
 983.213;   94.23000;-1.6436e-002
 984.102;   94.32000;-1.6604e-002
 985.005;   94.41000;-1.6785e-002
 985.906;   94.50000;-1.6956e-002
 986.808;   94.59000;-1.7138e-002
 987.714;   94.68000;-1.7316e-002
 988.595;   94.77000;-1.7501e-002
 989.502;   94.86000;-1.7671e-002
 990.401;   94.95000;-1.7858e-002
 991.301;   95.04000;-1.8038e-002
 992.213;   95.13000;-1.8225e-002
 993.102;   95.22000;-1.8406e-002
 993.998;   95.31000;-1.8592e-002
 994.899;   95.40000;-1.8779e-002
 995.798;   95.49000;-1.8958e-002
 996.704;   95.58000;-1.9147e-002
 997.607;   95.67000;-1.9337e-002
 998.493;   95.76000;-1.9526e-002
 999.41;   95.85000;-1.9706e-002
1000.3;   95.94000;-1.9900e-002
1001.19;   96.03000;-2.0091e-002
1002.11;   96.12000;-2.0273e-002
1002.99;   96.21000;-2.0470e-002
1003.9;   96.30000;-2.0663e-002
1004.8;   96.39000;-2.0850e-002
1005.69;   96.48000;-2.1055e-002
1006.59;   96.57000;-2.1247e-002
1007.5;   96.66000;-2.1433e-002
1008.39;   96.75000;-2.1635e-002
1009.29;   96.84000;-2.1838e-002
1010.19;   96.93000;-2.2030e-002
1011.08;   97.02000;-2.2236e-002
1011.99;   97.11000;-2.2439e-002
1012.88;   97.20000;-2.2642e-002
1013.78;   97.29000;-2.2841e-002
1014.69;   97.38000;-2.3036e-002
1015.58;   97.47000;-2.3242e-002
1016.48;   97.56000;-2.3453e-002
1017.37;   97.65000;-2.3668e-002
1018.28;   97.74000;-2.3869e-002
1019.18;   97.83000;-2.4082e-002
1020.07;   97.92000;-2.4282e-002
1020.97;   98.01000;-2.4488e-002
1021.88;   98.10000;-2.4697e-002
1022.77;   98.19000;-2.4907e-002
1023.67;   98.28000;-2.5118e-002
1024.57;   98.37000;-2.5324e-002
1025.46;   98.46000;-2.5536e-002
1026.35;   98.55000;-2.5749e-002
1027.26;   98.64000;-2.5950e-002
1028.16;   98.73000;-2.6167e-002
1029.07;   98.82000;-2.6367e-002
1029.95;   98.91000;-2.6602e-002
1030.85;   99.00000;-2.6816e-002
1031.74;   99.09000;-2.7020e-002
1032.65;   99.18000;-2.7250e-002
1033.54;   99.27000;-2.7473e-002
1034.44;   99.36000;-2.7689e-002
1035.35;   99.45000;-2.7900e-002
1036.24;   99.54000;-2.8131e-002
1037.14;   99.63000;-2.8339e-002
1038.04;   99.72000;-2.8577e-002
1038.93;   99.81000;-2.8798e-002
1039.83;   99.90000;-2.9027e-002
1040.72;   99.99000;-2.9267e-002
1041.62;  100.08;-2.9498e-002
1042.52;  100.17;-2.9716e-002
1043.41;  100.26;-2.9941e-002
1044.32;  100.35;-3.0183e-002
1045.22;  100.44;-3.0423e-002
1046.11;  100.53;-3.0658e-002
1047.02;  100.62;-3.0889e-002
1047.91;  100.71;-3.1126e-002
1048.81;  100.8;-3.1364e-002
1049.71;  100.89;-3.1608e-002
1050.62;  100.98;-3.1842e-002
1051.51;  101.07;-3.2081e-002
1052.4;  101.16;-3.2323e-002
1053.3;  101.25;-3.2570e-002
1054.2;  101.34;-3.2817e-002
1055.1;  101.43;-3.3057e-002
1056.01;  101.52;-3.3315e-002
1056.9;  101.61;-3.3549e-002
1057.8;  101.7;-3.3802e-002
1058.7;  101.79;-3.4051e-002
1059.59;  101.88;-3.4311e-002
1060.49;  101.97;-3.4570e-002
1061.38;  102.06;-3.4817e-002
1062.28;  102.15;-3.5073e-002
1063.18;  102.24;-3.5320e-002
1064.08;  102.33;-3.5576e-002
1064.97;  102.42;-3.5845e-002
1065.88;  102.51;-3.6100e-002
1066.77;  102.6;-3.6341e-002
1067.67;  102.69;-3.6615e-002
1068.56;  102.78;-3.6877e-002
1069.47;  102.87;-3.7125e-002
1070.37;  102.96;-3.7402e-002
1071.26;  103.05;-3.7656e-002
1072.17;  103.14;-3.7931e-002
1073.05;  103.23;-3.8189e-002
1073.95;  103.32;-3.8445e-002
1074.87;  103.41;-3.8719e-002
1075.75;  103.5;-3.8987e-002
1076.65;  103.59;-3.9237e-002
1077.56;  103.68;-3.9528e-002
1078.45;  103.77;-3.9783e-002
1079.34;  103.86;-4.0064e-002
1080.24;  103.95;-4.0328e-002
1081.15;  104.04;-4.0578e-002
1082.04;  104.13;-4.0855e-002
1082.94;  104.22;-4.1146e-002
1083.85;  104.31;-4.1412e-002
1084.75;  104.4;-4.1692e-002
1085.64;  104.49;-4.1951e-002
1086.54;  104.58;-4.2246e-002
1087.44;  104.67;-4.2534e-002
1088.33;  104.76;-4.2814e-002
1089.23;  104.85;-4.3079e-002
1090.14;  104.94;-4.3377e-002
1091.05;  105.03;-4.3648e-002
1091.93;  105.12;-4.3939e-002
1092.83;  105.21;-4.4223e-002
1093.74;  105.3;-4.4516e-002
1094.64;  105.39;-4.4795e-002
1095.54;  105.48;-4.5106e-002
1096.44;  105.57;-4.5373e-002
1097.34;  105.66;-4.5671e-002
1098.24;  105.75;-4.5968e-002
1099.13;  105.84;-4.6269e-002
1100.03;  105.93;-4.6550e-002
1100.93;  106.02;-4.6855e-002
1101.83;  106.11;-4.7152e-002
1102.73;  106.2;-4.7441e-002
1103.63;  106.29;-4.7714e-002
1104.53;  106.38;-4.8056e-002
1105.42;  106.47;-4.8360e-002
1106.32;  106.56;-4.8657e-002
1107.23;  106.65;-4.8953e-002
1108.11;  106.74;-4.9281e-002
1109.01;  106.83;-4.9592e-002
1109.92;  106.92;-4.9892e-002
1110.8;  107.01;-5.0173e-002
1111.71;  107.1;-5.0488e-002
1112.6;  107.19;-5.0822e-002
1113.5;  107.28;-5.1126e-002
1114.4;  107.37;-5.1432e-002
1115.31;  107.46;-5.1742e-002
1116.21;  107.55;-5.2046e-002
1117.12;  107.64;-5.2364e-002
1118.01;  107.73;-5.2685e-002
1118.91;  107.82;-5.2989e-002
1119.8;  107.91;-5.3294e-002
1120.71;  108;-5.3593e-002
1121.6;  108.09;-5.3931e-002
1122.5;  108.18;-5.4250e-002
1123.4;  108.27;-5.4508e-002
1124.3;  108.36;-5.4859e-002
1125.19;  108.45;-5.5182e-002
1126.09;  108.54;-5.5483e-002
1126.99;  108.63;-5.5803e-002
1127.9;  108.72;-5.6119e-002
1128.78;  108.81;-5.6423e-002
1129.69;  108.9;-5.6725e-002
1130.59;  108.99;-5.7065e-002
1131.49;  109.08;-5.7375e-002
1132.38;  109.17;-5.7649e-002
1133.27;  109.26;-5.7989e-002
1134.19;  109.35;-5.8290e-002
1135.08;  109.44;-5.8616e-002
1135.98;  109.53;-5.8927e-002
1136.89;  109.62;-5.9262e-002
1137.78;  109.71;-5.9566e-002
1138.69;  109.8;-5.9910e-002
1139.58;  109.89;-6.0222e-002
1140.47;  109.98;-6.0526e-002
1141.38;  110.07;-6.0834e-002
1142.27;  110.16;-6.1164e-002
1143.16;  110.25;-6.1478e-002
1144.07;  110.34;-6.1813e-002
1144.97;  110.43;-6.2131e-002
1145.86;  110.52;-6.2444e-002
1146.75;  110.61;-6.2730e-002
1147.66;  110.7;-6.3069e-002
1148.56;  110.79;-6.3373e-002
1149.46;  110.88;-6.3674e-002
1150.36;  110.97;-6.3932e-002
1151.26;  111.06;-6.4260e-002
1152.16;  111.15;-6.4567e-002
1153.06;  111.24;-6.4900e-002
1153.95;  111.33;-6.5190e-002
1154.85;  111.42;-6.5439e-002
1155.75;  111.51;-6.5796e-002
1156.65;  111.6;-6.6070e-002
1157.56;  111.69;-6.6399e-002
1158.44;  111.78;-6.6668e-002
1159.34;  111.87;-6.6986e-002
1160.23;  111.96;-6.7287e-002
1161.15;  112.05;-6.7580e-002
1162.04;  112.14;-6.7889e-002
1162.94;  112.23;-6.8149e-002
1163.83;  112.32;-6.8454e-002
1164.74;  112.41;-6.8743e-002
1165.64;  112.5;-6.9013e-002
1166.54;  112.59;-6.9325e-002
1167.43;  112.68;-6.9599e-002
1168.33;  112.77;-6.9896e-002
1169.23;  112.86;-7.0191e-002
1170.12;  112.95;-7.0482e-002
1171.03;  113.04;-7.0742e-002
1171.93;  113.13;-7.1031e-002
1172.83;  113.22;-7.1283e-002
1173.72;  113.31;-7.1608e-002
1174.63;  113.4;-7.1862e-002
1175.52;  113.49;-7.2114e-002
1176.42;  113.58;-7.2426e-002
1177.33;  113.67;-7.2698e-002
1178.21;  113.76;-7.2959e-002
1179.11;  113.85;-7.3228e-002
1180.01;  113.94;-7.3489e-002
1180.91;  114.03;-7.3744e-002
1181.81;  114.12;-7.4033e-002
1182.71;  114.21;-7.4293e-002
1183.61;  114.3;-7.4506e-002
1184.52;  114.39;-7.4773e-002
1185.42;  114.48;-7.5028e-002
1186.31;  114.57;-7.5262e-002
1187.21;  114.66;-7.5552e-002
1188.11;  114.75;-7.5785e-002
1188.99;  114.84;-7.6023e-002
1189.9;  114.93;-7.6255e-002
1190.81;  115.02;-7.6501e-002
1191.71;  115.11;-7.6716e-002
1192.61;  115.2;-7.6950e-002
1193.49;  115.29;-7.7231e-002
1194.41;  115.38;-7.7399e-002
1195.3;  115.47;-7.7700e-002
1196.19;  115.56;-7.7910e-002
1197.11;  115.65;-7.8133e-002
1198.01;  115.74;-7.8383e-002
1198.89;  115.83;-7.8606e-002
1199.81;  115.92;-7.8779e-002
1200.69;  116.01;-7.9032e-002
1201.6;  116.1;-7.9237e-002
1202.51;  116.19;-7.9471e-002
1203.39;  116.28;-7.9650e-002
1204.3;  116.37;-7.9844e-002
1205.19;  116.46;-8.0085e-002
1206.09;  116.55;-8.0267e-002
1206.98;  116.64;-8.0466e-002
1207.89;  116.73;-8.0712e-002
1208.79;  116.82;-8.0921e-002
1209.68;  116.91;-8.1132e-002
1210.59;  117;-8.1310e-002
1211.47;  117.09;-8.1517e-002
1212.38;  117.18;-8.1707e-002
1213.27;  117.27;-8.1899e-002
1214.18;  117.36;-8.2063e-002
1215.09;  117.45;-8.2255e-002
1215.97;  117.54;-8.2435e-002
1216.87;  117.63;-8.2654e-002
1217.79;  117.72;-8.2791e-002
1218.68;  117.81;-8.2989e-002
1219.58;  117.9;-8.3178e-002
1220.47;  117.99;-8.3348e-002
1221.38;  118.08;-8.3499e-002
1222.28;  118.17;-8.3708e-002
1223.17;  118.26;-8.3854e-002
1224.08;  118.35;-8.4038e-002
1224.96;  118.44;-8.4209e-002
1225.88;  118.53;-8.4401e-002
1226.76;  118.62;-8.4515e-002
1227.67;  118.71;-8.4699e-002
1228.58;  118.8;-8.4903e-002
1229.47;  118.89;-8.5030e-002
1230.38;  118.98;-8.5227e-002
1231.27;  119.07;-8.5357e-002
1232.17;  119.16;-8.5532e-002
1233.07;  119.25;-8.5708e-002
1233.96;  119.34;-8.5863e-002
1234.87;  119.43;-8.5967e-002
1235.78;  119.52;-8.6179e-002
1236.67;  119.61;-8.6318e-002
1237.56;  119.7;-8.6446e-002
1238.45;  119.79;-8.6610e-002
1239.36;  119.88;-8.6751e-002
1240.25;  119.97;-8.6934e-002
1241.15;  120.06;-8.7054e-002
1242.06;  120.15;-8.7221e-002
1242.95;  120.24;-8.7333e-002
1243.86;  120.33;-8.7504e-002
1244.76;  120.42;-8.7584e-002
1245.66;  120.51;-8.7806e-002
1246.55;  120.6;-8.7922e-002
1247.46;  120.69;-8.8069e-002
1248.36;  120.78;-8.8209e-002
1249.25;  120.87;-8.8348e-002
1250.17;  120.96;-8.8497e-002
1251.05;  121.05;-8.8610e-002
1251.96;  121.14;-8.8700e-002
1252.85;  121.23;-8.8893e-002
1253.75;  121.32;-8.9038e-002
1254.66;  121.41;-8.9135e-002
1255.54;  121.5;-8.9238e-002
1256.45;  121.59;-8.9418e-002
1257.35;  121.68;-8.9516e-002
1258.25;  121.77;-8.9631e-002
1259.14;  121.86;-8.9813e-002
1260.04;  121.95;-8.9951e-002
1260.95;  122.04;-9.0015e-002
1261.85;  122.13;-9.0177e-002
1262.75;  122.22;-9.0270e-002
1263.64;  122.31;-9.0444e-002
1264.54;  122.4;-9.0537e-002
1265.45;  122.49;-9.0649e-002
1266.34;  122.58;-9.0812e-002
1267.25;  122.67;-9.0916e-002
1268.16;  122.76;-9.1066e-002
1269.06;  122.85;-9.1166e-002
1269.95;  122.94;-9.1301e-002
1270.84;  123.03;-9.1411e-002
1271.76;  123.12;-9.1481e-002
1272.64;  123.21;-9.1641e-002
1273.54;  123.3;-9.1765e-002
1274.46;  123.39;-9.1792e-002
1275.35;  123.48;-9.1999e-002
1276.24;  123.57;-9.2105e-002
1277.13;  123.66;-9.2203e-002
1278.06;  123.75;-9.2295e-002
1278.96;  123.84;-9.2410e-002
1279.85;  123.93;-9.2553e-002
1280.74;  124.02;-9.2661e-002
1281.64;  124.11;-9.2750e-002
1282.55;  124.2;-9.2856e-002
1283.46;  124.29;-9.2997e-002
1284.34;  124.38;-9.3049e-002
1285.25;  124.47;-9.3194e-002
1286.14;  124.56;-9.3319e-002
1287.04;  124.65;-9.3428e-002
1287.96;  124.74;-9.3514e-002
1288.85;  124.83;-9.3640e-002
1289.76;  124.92;-9.3724e-002
1290.64;  125.01;-9.3848e-002
1291.55;  125.1;-9.3909e-002
1292.43;  125.19;-9.4040e-002
1293.35;  125.28;-9.4179e-002
1294.26;  125.37;-9.4262e-002
1295.15;  125.46;-9.4427e-002
1296.05;  125.55;-9.4515e-002
1296.94;  125.64;-9.4651e-002
1297.85;  125.73;-9.4762e-002
1298.73;  125.82;-9.4888e-002
1299.65;  125.91;-9.5004e-002
1300.55;  126;-9.5107e-002
1301.44;  126.09;-9.5238e-002
1302.34;  126.18;-9.5341e-002
1303.24;  126.27;-9.5411e-002
1304.14;  126.36;-9.5563e-002
1305.04;  126.45;-9.5649e-002
1305.94;  126.54;-9.5772e-002
1306.84;  126.63;-9.5938e-002
1307.73;  126.72;-9.6030e-002
1308.64;  126.81;-9.6222e-002
1309.52;  126.9;-9.6350e-002
1310.44;  126.99;-9.6464e-002
1311.35;  127.08;-9.6597e-002
1312.24;  127.17;-9.6710e-002
1313.14;  127.26;-9.6833e-002
1314.03;  127.35;-9.6958e-002
1314.93;  127.44;-9.6992e-002
1315.82;  127.53;-9.7171e-002
1316.73;  127.62;-9.7265e-002
1317.64;  127.71;-9.7347e-002
1318.54;  127.8;-9.7476e-002
1319.42;  127.89;-9.7614e-002
1320.35;  127.98;-9.7684e-002
1321.23;  128.07;-9.7838e-002
1322.15;  128.16;-9.7905e-002
1323.04;  128.25;-9.8028e-002
1323.94;  128.34;-9.8135e-002
1324.85;  128.43;-9.8235e-002
1325.75;  128.52;-9.8331e-002
1326.65;  128.61;-9.8455e-002
1327.54;  128.7;-9.8523e-002
1328.45;  128.79;-9.8683e-002
1329.33;  128.88;-9.8785e-002
1330.24;  128.97;-9.8797e-002
1331.15;  129.06;-9.8954e-002
1332.04;  129.15;-9.9075e-002
1332.94;  129.24;-9.9134e-002
1333.83;  129.33;-9.9291e-002
1334.74;  129.42;-9.9399e-002
1335.35;  129.48;-9.9437e-002