File: 000407_correction_saphire_1_1350_Air-static.txt
#FILE:                 ;000407_correction_saphire_1_1350_Air-static.cle
#FORMAT:               ;NETZSCH5
#IDENTITY:             ;000407
#DECIMAL:              ;POINT
#SEPARATOR:            ;SEMICOLON
#MTYPE:                ;DIL
#MSUBTYPE:             ;
#INSTRUMENT:           ;NETZSCH DIL 402 C
#PROJECT:              ;
#DATE/TIME:            ;02.07.2021 18:26:51
#CORR. FILE:           ;
#LABORATORY:           ;НМ
#OPERATOR:             ;Орлов Н.
#REMARK:               ;
#SAMPLE:               ;corr_1
#SAMPLE LENGTH /mm:    ;3.010
#MATERIAL:             ;стандартный образец
#MEASMODE:             ;Standard Expansion
#PURGE GAS 1:          ;
#FLOW RATE 1 /(ml/min):;0
#CORR. CODE:           ;000
#RANGE:                ;40.0/1.0(K/мин)/1350.0
#SEGMENT:              ;S1/1

##Temp./°C;Time/min;dL/Lo
  40.38600;0.0000e+000; 0.0000e+000
  40.57500;    0.87500;-3.9867e-006
  41.00700;    1.75000;-1.2583e-005
  41.47400;    2.62500;-2.6329e-005
  42.06400;    3.50000;-4.1902e-005
  42.75400;    4.37500;-6.1379e-005
  43.50500;    5.25000;-8.3223e-005
  44.33200;    6.12500;-1.0723e-004
  45.23600;    7.00000;-1.3081e-004
  46.19800;    7.87500;-1.5631e-004
  47.18700;    8.75000;-1.8123e-004
  48.22900;    9.62500;-2.0415e-004
  49.28200;   10.50000;-2.2367e-004
  50.34300;   11.37500;-2.4178e-004
  51.42700;   12.25000;-2.5465e-004
  52.50900;   13.12500;-2.6856e-004
  53.56700;   14.00000;-2.7558e-004
  54.62600;   14.87500;-2.8173e-004
  55.66900;   15.75000;-2.8422e-004
  56.68100;   16.62500;-2.8480e-004
  57.68400;   17.50000;-2.8185e-004
  58.65400;   18.37500;-2.7612e-004
  59.60700;   19.25000;-2.6865e-004
  60.55400;   20.12500;-2.5955e-004
  61.46700;   21.00000;-2.4988e-004
  62.35900;   21.87500;-2.3866e-004
  63.24200;   22.75000;-2.2620e-004
  64.11700;   23.62500;-2.1478e-004
  64.98900;   24.50000;-2.0029e-004
  65.84000;   25.37500;-1.8833e-004
  66.70100;   26.25000;-1.7458e-004
  67.53900;   27.12500;-1.6416e-004
  68.39300;   28.00000;-1.5120e-004
  69.23500;   28.87500;-1.4016e-004
  70.08100;   29.75000;-1.2857e-004
  70.93500;   30.62500;-1.1811e-004
  71.78700;   31.50000;-1.0905e-004
  72.64400;   32.37500;-1.0017e-004
  73.50400;   33.25000;-9.0241e-005
  74.35700;   34.12500;-8.0565e-005
  75.22500;   35.00000;-7.2882e-005
  76.10300;   35.87500;-6.4327e-005
  76.97200;   36.75000;-5.6437e-005
  77.86000;   37.62500;-4.6512e-005
  78.74000;   38.50000;-3.9867e-005
  79.62000;   39.37500;-3.1105e-005
  80.48800;   40.25000;-2.4003e-005
  81.37100;   41.12500;-1.6487e-005
  82.25600;   42.00000;-8.7209e-006
  83.13300;   42.87500;-2.4917e-007
  84.02000;   43.75000; 7.8488e-006
  84.90500;   44.62500; 1.5822e-005
  85.78400;   45.50000; 2.2882e-005
  86.67200;   46.37500; 3.3264e-005
  87.55600;   47.25000; 4.2234e-005
  88.42700;   48.12500; 4.9668e-005
  89.30500;   49.00000; 5.8555e-005
  90.18200;   49.87500; 6.6487e-005
  91.05900;   50.75000; 7.5291e-005
  91.93600;   51.62500; 8.2766e-005
  92.82500;   52.50000; 9.1487e-005
  93.70200;   53.37500; 1.0054e-004
  94.57300;   54.25000; 1.0993e-004
  95.44900;   55.12500; 1.1881e-004
  96.31600;   56.00000; 1.2787e-004
  97.20200;   56.87500; 1.3584e-004
  98.07800;   57.75000; 1.4477e-004
  98.94800;   58.62500; 1.5353e-004
  99.82900;   59.50000; 1.6163e-004
 100.698;   60.37500; 1.7168e-004
 101.574;   61.25000; 1.7874e-004
 102.448;   62.12500; 1.8625e-004
 103.332;   63.00000; 1.9493e-004
 104.207;   63.87500; 2.0378e-004
 105.089;   64.75000; 2.1308e-004
 105.959;   65.62500; 2.2081e-004
 106.843;   66.50000; 2.2890e-004
 107.72;   67.37500; 2.3729e-004
 108.604;   68.25000; 2.4643e-004
 109.479;   69.12500; 2.5403e-004
 110.361;   70.00000; 2.6242e-004
 111.233;   70.87500; 2.7172e-004
 112.121;   71.75000; 2.7986e-004
 112.986;   72.62500; 2.8684e-004
 113.871;   73.50000; 2.9709e-004
 114.751;   74.37500; 3.0486e-004
 115.63;   75.25000; 3.1362e-004
 116.51;   76.12500; 3.2321e-004
 117.385;   77.00000; 3.3115e-004
 118.274;   77.87500; 3.3929e-004
 119.147;   78.75000; 3.4913e-004
 120.03;   79.62500; 3.5698e-004
 120.898;   80.50000; 3.6528e-004
 121.768;   81.37500; 3.7446e-004
 122.652;   82.25000; 3.8409e-004
 123.536;   83.12500; 3.9165e-004
 124.408;   84.00000; 4.0046e-004
 125.287;   84.87500; 4.0963e-004
 126.163;   85.75000; 4.1707e-004
 127.043;   86.62500; 4.2542e-004
 127.918;   87.50000; 4.3173e-004
 128.8;   88.37500; 4.4032e-004
 129.67;   89.25000; 4.4859e-004
 130.547;   90.12500; 4.5706e-004
 131.424;   91.00000; 4.6470e-004
 132.299;   91.87500; 4.7355e-004
 133.175;   92.75000; 4.8131e-004
 134.054;   93.62500; 4.9016e-004
 134.934;   94.50000; 4.9855e-004
 135.805;   95.37500; 5.0677e-004
 136.68;   96.25000; 5.1595e-004
 137.562;   97.12500; 5.2392e-004
 138.438;   98.00000; 5.3281e-004
 139.314;   98.87500; 5.4057e-004
 140.187;   99.75000; 5.4884e-004
 141.058;  100.625; 5.5557e-004
 141.94;  101.5; 5.6441e-004
 142.816;  102.375; 5.7371e-004
 143.694;  103.25; 5.8106e-004
 144.576;  104.125; 5.9016e-004
 145.442;  105; 5.9830e-004
 146.316;  105.875; 6.0764e-004
 147.193;  106.75; 6.1491e-004
 148.066;  107.625; 6.2413e-004
 148.946;  108.5; 6.3293e-004
 149.826;  109.375; 6.4136e-004
 150.705;  110.25; 6.5079e-004
 151.571;  111.125; 6.5806e-004
 152.457;  112; 6.6495e-004
 153.331;  112.875; 6.7400e-004
 154.204;  113.75; 6.8094e-004
 155.081;  114.625; 6.9024e-004
 155.956;  115.5; 6.9784e-004
 156.833;  116.375; 7.0561e-004
 157.708;  117.25; 7.1292e-004
 158.586;  118.125; 7.2172e-004
 159.459;  119; 7.2911e-004
 160.347;  119.875; 7.3733e-004
 161.217;  120.75; 7.4622e-004
 162.09;  121.625; 7.5407e-004
 162.967;  122.5; 7.6275e-004
 163.849;  123.375; 7.7230e-004
 164.723;  124.25; 7.8102e-004
 165.599;  125.125; 7.8821e-004
 166.483;  126; 7.9784e-004
 167.353;  126.875; 8.0590e-004
 168.236;  127.75; 8.1350e-004
 169.111;  128.625; 8.2363e-004
 169.984;  129.5; 8.3077e-004
 170.858;  130.375; 8.4024e-004
 171.744;  131.25; 8.4855e-004
 172.61;  132.125; 8.5748e-004
 173.493;  133; 8.6441e-004
 174.369;  133.875; 8.7272e-004
 175.242;  134.75; 8.8052e-004
 176.11;  135.625; 8.8816e-004
 176.994;  136.5; 8.9626e-004
 177.868;  137.375; 9.0465e-004
 178.744;  138.25; 9.1358e-004
 179.62;  139.125; 9.2139e-004
 180.501;  140; 9.3007e-004
 181.377;  140.875; 9.3854e-004
 182.245;  141.75; 9.4606e-004
 183.126;  142.625; 9.5378e-004
 183.993;  143.5; 9.6184e-004
 184.866;  144.375; 9.6981e-004
 185.748;  145.25; 9.7637e-004
 186.621;  146.125; 9.8439e-004
 187.49;  147; 9.9194e-004
 188.376;  147.875; 9.9963e-004
 189.25;  148.75; 1.0071e-003
 190.115;  149.625; 1.0147e-003
 190.989;  150.5; 1.0226e-003
 191.875;  151.375; 1.0298e-003
 192.748;  152.25; 1.0390e-003
 193.633;  153.125; 1.0464e-003
 194.507;  154; 1.0526e-003
 195.388;  154.875; 1.0613e-003
 196.26;  155.75; 1.0691e-003
 197.132;  156.625; 1.0768e-003
 198.012;  157.5; 1.0842e-003
 198.884;  158.375; 1.0913e-003
 199.761;  159.25; 1.0997e-003
 200.628;  160.125; 1.1061e-003
 201.504;  161; 1.1139e-003
 202.384;  161.875; 1.1229e-003
 203.261;  162.75; 1.1302e-003
 204.138;  163.625; 1.1380e-003
 205.022;  164.5; 1.1459e-003
 205.896;  165.375; 1.1536e-003
 206.773;  166.25; 1.1615e-003
 207.634;  167.125; 1.1693e-003
 208.516;  168; 1.1768e-003
 209.396;  168.875; 1.1863e-003
 210.273;  169.75; 1.1922e-003
 211.148;  170.625; 1.2007e-003
 212.016;  171.5; 1.2078e-003
 212.9;  172.375; 1.2150e-003
 213.765;  173.25; 1.2237e-003
 214.644;  174.125; 1.2288e-003
 215.516;  175; 1.2373e-003
 216.397;  175.875; 1.2449e-003
 217.274;  176.75; 1.2516e-003
 218.151;  177.625; 1.2591e-003
 219.029;  178.5; 1.2653e-003
 219.903;  179.375; 1.2747e-003
 220.778;  180.25; 1.2809e-003
 221.654;  181.125; 1.2885e-003
 222.522;  182; 1.2951e-003
 223.408;  182.875; 1.3028e-003
 224.28;  183.75; 1.3100e-003
 225.155;  184.625; 1.3176e-003
 226.034;  185.5; 1.3250e-003
 226.907;  186.375; 1.3327e-003
 227.79;  187.25; 1.3394e-003
 228.659;  188.125; 1.3465e-003
 229.539;  189; 1.3528e-003
 230.405;  189.875; 1.3609e-003
 231.281;  190.75; 1.3689e-003
 232.153;  191.625; 1.3757e-003
 233.041;  192.5; 1.3830e-003
 233.909;  193.375; 1.3902e-003
 234.791;  194.25; 1.3970e-003
 235.67;  195.125; 1.4034e-003
 236.539;  196; 1.4111e-003
 237.418;  196.875; 1.4173e-003
 238.291;  197.75; 1.4249e-003
 239.165;  198.625; 1.4325e-003
 240.037;  199.5; 1.4388e-003
 240.919;  200.375; 1.4462e-003
 241.793;  201.25; 1.4532e-003
 242.666;  202.125; 1.4606e-003
 243.555;  203; 1.4668e-003
 244.423;  203.875; 1.4740e-003
 245.294;  204.75; 1.4810e-003
 246.17;  205.625; 1.4880e-003
 247.043;  206.5; 1.4959e-003
 247.929;  207.375; 1.5030e-003
 248.792;  208.25; 1.5100e-003
 249.672;  209.125; 1.5161e-003
 250.548;  210; 1.5229e-003
 251.425;  210.875; 1.5290e-003
 252.297;  211.75; 1.5358e-003
 253.171;  212.625; 1.5427e-003
 254.046;  213.5; 1.5495e-003
 254.922;  214.375; 1.5567e-003
 255.803;  215.25; 1.5642e-003
 256.677;  216.125; 1.5716e-003
 257.548;  217; 1.5786e-003
 258.43;  217.875; 1.5851e-003
 259.295;  218.75; 1.5917e-003
 260.166;  219.625; 1.5978e-003
 261.048;  220.5; 1.6042e-003
 261.923;  221.375; 1.6115e-003
 262.796;  222.25; 1.6178e-003
 263.671;  223.125; 1.6255e-003
 264.548;  224; 1.6324e-003
 265.423;  224.875; 1.6399e-003
 266.302;  225.75; 1.6466e-003
 267.178;  226.625; 1.6532e-003
 268.053;  227.5; 1.6596e-003
 268.925;  228.375; 1.6659e-003
 269.796;  229.25; 1.6719e-003
 270.671;  230.125; 1.6808e-003
 271.555;  231; 1.6870e-003
 272.427;  231.875; 1.6925e-003
 273.299;  232.75; 1.6998e-003
 274.176;  233.625; 1.7074e-003
 275.055;  234.5; 1.7141e-003
 275.929;  235.375; 1.7207e-003
 276.803;  236.25; 1.7284e-003
 277.678;  237.125; 1.7330e-003
 278.557;  238; 1.7394e-003
 279.431;  238.875; 1.7450e-003
 280.307;  239.75; 1.7525e-003
 281.185;  240.625; 1.7587e-003
 282.053;  241.5; 1.7648e-003
 282.936;  242.375; 1.7695e-003
 283.813;  243.25; 1.7760e-003
 284.683;  244.125; 1.7821e-003
 285.555;  245; 1.7881e-003
 286.433;  245.875; 1.7952e-003
 287.31;  246.75; 1.8021e-003
 288.187;  247.625; 1.8076e-003
 289.065;  248.5; 1.8139e-003
 289.931;  249.375; 1.8203e-003
 290.81;  250.25; 1.8268e-003
 291.69;  251.125; 1.8321e-003
 292.567;  252; 1.8392e-003
 293.44;  252.875; 1.8463e-003
 294.314;  253.75; 1.8520e-003
 295.186;  254.625; 1.8587e-003
 296.065;  255.5; 1.8637e-003
 296.94;  256.375; 1.8708e-003
 297.815;  257.25; 1.8776e-003
 298.694;  258.125; 1.8831e-003
 299.572;  259; 1.8897e-003
 300.448;  259.875; 1.8944e-003
 301.325;  260.75; 1.9018e-003
 302.194;  261.625; 1.9073e-003
 303.079;  262.5; 1.9135e-003
 303.939;  263.375; 1.9204e-003
 304.821;  264.25; 1.9250e-003
 305.704;  265.125; 1.9314e-003
 306.576;  266; 1.9388e-003
 307.444;  266.875; 1.9450e-003
 308.316;  267.75; 1.9521e-003
 309.195;  268.625; 1.9587e-003
 310.078;  269.5; 1.9657e-003
 310.947;  270.375; 1.9727e-003
 311.821;  271.25; 1.9784e-003
 312.695;  272.125; 1.9848e-003
 313.573;  273; 1.9911e-003
 314.451;  273.875; 1.9973e-003
 315.318;  274.75; 2.0021e-003
 316.201;  275.625; 2.0075e-003
 317.068;  276.5; 2.0134e-003
 317.944;  277.375; 2.0189e-003
 318.821;  278.25; 2.0248e-003
 319.701;  279.125; 2.0307e-003
 320.566;  280; 2.0368e-003
 321.45;  280.875; 2.0429e-003
 322.327;  281.75; 2.0502e-003
 323.194;  282.625; 2.0540e-003
 324.07;  283.5; 2.0607e-003
 324.952;  284.375; 2.0660e-003
 325.826;  285.25; 2.0730e-003
 326.705;  286.125; 2.0784e-003
 327.584;  287; 2.0848e-003
 328.455;  287.875; 2.0920e-003
 329.325;  288.75; 2.0988e-003
 330.204;  289.625; 2.1056e-003
 331.074;  290.5; 2.1129e-003
 331.951;  291.375; 2.1177e-003
 332.828;  292.25; 2.1249e-003
 333.709;  293.125; 2.1307e-003
 334.578;  294; 2.1381e-003
 335.451;  294.875; 2.1454e-003
 336.322;  295.75; 2.1520e-003
 337.199;  296.625; 2.1585e-003
 338.075;  297.5; 2.1658e-003
 338.95;  298.375; 2.1719e-003
 339.822;  299.25; 2.1775e-003
 340.698;  300.125; 2.1840e-003
 341.572;  301; 2.1896e-003
 342.453;  301.875; 2.1945e-003
 343.324;  302.75; 2.2015e-003
 344.204;  303.625; 2.2069e-003
 345.076;  304.5; 2.2118e-003
 345.949;  305.375; 2.2194e-003
 346.83;  306.25; 2.2244e-003
 347.707;  307.125; 2.2307e-003
 348.577;  308; 2.2357e-003
 349.456;  308.875; 2.2419e-003
 350.332;  309.75; 2.2481e-003
 351.209;  310.625; 2.2525e-003
 352.078;  311.5; 2.2589e-003
 352.954;  312.375; 2.2649e-003
 353.827;  313.25; 2.2699e-003
 354.709;  314.125; 2.2755e-003
 355.578;  315; 2.2804e-003
 356.461;  315.875; 2.2863e-003
 357.327;  316.75; 2.2923e-003
 358.205;  317.625; 2.3000e-003
 359.086;  318.5; 2.3043e-003
 359.964;  319.375; 2.3111e-003
 360.829;  320.25; 2.3170e-003
 361.707;  321.125; 2.3216e-003
 362.584;  322; 2.3286e-003
 363.463;  322.875; 2.3330e-003
 364.332;  323.75; 2.3402e-003
 365.21;  324.625; 2.3468e-003
 366.08;  325.5; 2.3510e-003
 366.951;  326.375; 2.3564e-003
 367.838;  327.25; 2.3637e-003
 368.708;  328.125; 2.3674e-003
 369.584;  329; 2.3736e-003
 370.461;  329.875; 2.3779e-003
 371.335;  330.75; 2.3846e-003
 372.213;  331.625; 2.3903e-003
 373.089;  332.5; 2.3955e-003
 373.963;  333.375; 2.4015e-003
 374.829;  334.25; 2.4067e-003
 375.706;  335.125; 2.4129e-003
 376.581;  336; 2.4189e-003
 377.462;  336.875; 2.4249e-003
 378.343;  337.75; 2.4311e-003
 379.203;  338.625; 2.4360e-003
 380.09;  339.5; 2.4417e-003
 380.968;  340.375; 2.4478e-003
 381.841;  341.25; 2.4527e-003
 382.712;  342.125; 2.4582e-003
 383.589;  343; 2.4646e-003
 384.455;  343.875; 2.4714e-003
 385.341;  344.75; 2.4768e-003
 386.21;  345.625; 2.4816e-003
 387.091;  346.5; 2.4880e-003
 387.96;  347.375; 2.4932e-003
 388.838;  348.25; 2.4983e-003
 389.71;  349.125; 2.5052e-003
 390.593;  350; 2.5106e-003
 391.459;  350.875; 2.5159e-003
 392.336;  351.75; 2.5211e-003
 393.215;  352.625; 2.5278e-003
 394.091;  353.5; 2.5335e-003
 394.955;  354.375; 2.5393e-003
 395.84;  355.25; 2.5447e-003
 396.718;  356.125; 2.5509e-003
 397.597;  357; 2.5572e-003
 398.47;  357.875; 2.5612e-003
 399.342;  358.75; 2.5668e-003
 400.211;  359.625; 2.5737e-003
 401.086;  360.5; 2.5783e-003
 401.966;  361.375; 2.5854e-003
 402.842;  362.25; 2.5902e-003
 403.718;  363.125; 2.5978e-003
 404.589;  364; 2.6026e-003
 405.466;  364.875; 2.6079e-003
 406.336;  365.75; 2.6150e-003
 407.214;  366.625; 2.6198e-003
 408.094;  367.5; 2.6258e-003
 408.957;  368.375; 2.6309e-003
 409.839;  369.25; 2.6371e-003
 410.715;  370.125; 2.6429e-003
 411.6;  371; 2.6495e-003
 412.461;  371.875; 2.6542e-003
 413.345;  372.75; 2.6600e-003
 414.209;  373.625; 2.6656e-003
 415.093;  374.5; 2.6712e-003
 415.965;  375.375; 2.6779e-003
 416.842;  376.25; 2.6827e-003
 417.722;  377.125; 2.6885e-003
 418.59;  378; 2.6933e-003
 419.463;  378.875; 2.6972e-003
 420.342;  379.75; 2.7032e-003
 421.215;  380.625; 2.7091e-003
 422.087;  381.5; 2.7134e-003
 422.961;  382.375; 2.7211e-003
 423.835;  383.25; 2.7258e-003
 424.721;  384.125; 2.7330e-003
 425.591;  385; 2.7382e-003
 426.461;  385.875; 2.7431e-003
 427.337;  386.75; 2.7491e-003
 428.217;  387.625; 2.7549e-003
 429.088;  388.5; 2.7601e-003
 429.967;  389.375; 2.7669e-003
 430.843;  390.25; 2.7721e-003
 431.717;  391.125; 2.7777e-003
 432.59;  392; 2.7838e-003
 433.467;  392.875; 2.7878e-003
 434.341;  393.75; 2.7939e-003
 435.222;  394.625; 2.8006e-003
 436.093;  395.5; 2.8064e-003
 436.975;  396.375; 2.8126e-003
 437.842;  397.25; 2.8190e-003
 438.72;  398.125; 2.8247e-003
 439.593;  399; 2.8301e-003
 440.455;  399.875; 2.8373e-003
 441.338;  400.75; 2.8402e-003
 442.216;  401.625; 2.8468e-003
 443.091;  402.5; 2.8519e-003
 443.964;  403.375; 2.8576e-003
 444.847;  404.25; 2.8642e-003
 445.716;  405.125; 2.8688e-003
 446.6;  406; 2.8746e-003
 447.464;  406.875; 2.8820e-003
 448.345;  407.75; 2.8869e-003
 449.219;  408.625; 2.8937e-003
 450.091;  409.5; 2.8999e-003
 450.958;  410.375; 2.9047e-003
 451.845;  411.25; 2.9101e-003
 452.716;  412.125; 2.9160e-003
 453.588;  413; 2.9221e-003
 454.468;  413.875; 2.9281e-003
 455.34;  414.75; 2.9331e-003
 456.218;  415.625; 2.9392e-003
 457.09;  416.5; 2.9441e-003
 457.96;  417.375; 2.9506e-003
 458.848;  418.25; 2.9570e-003
 459.719;  419.125; 2.9624e-003
 460.589;  420; 2.9689e-003
 461.465;  420.875; 2.9735e-003
 462.339;  421.75; 2.9799e-003
 463.221;  422.625; 2.9859e-003
 464.095;  423.5; 2.9916e-003
 464.969;  424.375; 2.9964e-003
 465.837;  425.25; 3.0026e-003
 466.715;  426.125; 3.0083e-003
 467.599;  427; 3.0130e-003
 468.477;  427.875; 3.0186e-003
 469.343;  428.75; 3.0234e-003
 470.223;  429.625; 3.0284e-003
 471.097;  430.5; 3.0345e-003
 471.961;  431.375; 3.0412e-003
 472.839;  432.25; 3.0473e-003
 473.714;  433.125; 3.0542e-003
 474.59;  434; 3.0588e-003
 475.471;  434.875; 3.0641e-003
 476.333;  435.75; 3.0701e-003
 477.214;  436.625; 3.0755e-003
 478.089;  437.5; 3.0837e-003
 478.967;  438.375; 3.0867e-003
 479.842;  439.25; 3.0944e-003
 480.721;  440.125; 3.1000e-003
 481.588;  441; 3.1048e-003
 482.465;  441.875; 3.1105e-003
 483.34;  442.75; 3.1162e-003
 484.212;  443.625; 3.1208e-003
 485.087;  444.5; 3.1265e-003
 485.961;  445.375; 3.1333e-003
 486.843;  446.25; 3.1400e-003
 487.723;  447.125; 3.1451e-003
 488.588;  448; 3.1492e-003
 489.461;  448.875; 3.1573e-003
 490.343;  449.75; 3.1641e-003
 491.213;  450.625; 3.1679e-003
 492.086;  451.5; 3.1738e-003
 492.97;  452.375; 3.1805e-003
 493.839;  453.25; 3.1860e-003
 494.722;  454.125; 3.1909e-003
 495.583;  455; 3.1965e-003
 496.468;  455.875; 3.2035e-003
 497.345;  456.75; 3.2100e-003
 498.215;  457.625; 3.2145e-003
 499.091;  458.5; 3.2208e-003
 499.961;  459.375; 3.2260e-003
 500.838;  460.25; 3.2302e-003
 501.72;  461.125; 3.2358e-003
 502.587;  462; 3.2420e-003
 503.46;  462.875; 3.2476e-003
 504.336;  463.75; 3.2536e-003
 505.212;  464.625; 3.2579e-003
 506.09;  465.5; 3.2644e-003
 506.965;  466.375; 3.2704e-003
 507.83;  467.25; 3.2764e-003
 508.71;  468.125; 3.2828e-003
 509.595;  469; 3.2881e-003
 510.465;  469.875; 3.2934e-003
 511.343;  470.75; 3.3015e-003
 512.22;  471.625; 3.3069e-003
 513.091;  472.5; 3.3137e-003
 513.968;  473.375; 3.3191e-003
 514.841;  474.25; 3.3243e-003
 515.719;  475.125; 3.3300e-003
 516.59;  476; 3.3353e-003
 517.469;  476.875; 3.3415e-003
 518.351;  477.75; 3.3467e-003
 519.224;  478.625; 3.3527e-003
 520.093;  479.5; 3.3593e-003
 520.975;  480.375; 3.3637e-003
 521.839;  481.25; 3.3708e-003
 522.718;  482.125; 3.3759e-003
 523.586;  483; 3.3820e-003
 524.465;  483.875; 3.3870e-003
 525.339;  484.75; 3.3941e-003
 526.22;  485.625; 3.4012e-003
 527.093;  486.5; 3.4060e-003
 527.968;  487.375; 3.4123e-003
 528.837;  488.25; 3.4158e-003
 529.721;  489.125; 3.4239e-003
 530.585;  490; 3.4310e-003
 531.463;  490.875; 3.4353e-003
 532.338;  491.75; 3.4418e-003
 533.219;  492.625; 3.4495e-003
 534.092;  493.5; 3.4530e-003
 534.967;  494.375; 3.4598e-003
 535.841;  495.25; 3.4653e-003
 536.716;  496.125; 3.4733e-003
 537.593;  497; 3.4790e-003
 538.457;  497.875; 3.4851e-003
 539.341;  498.75; 3.4909e-003
 540.212;  499.625; 3.4974e-003
 541.088;  500.5; 3.5018e-003
 541.967;  501.375; 3.5085e-003
 542.834;  502.25; 3.5137e-003
 543.716;  503.125; 3.5192e-003
 544.596;  504; 3.5242e-003
 545.467;  504.875; 3.5314e-003
 546.34;  505.75; 3.5385e-003
 547.219;  506.625; 3.5446e-003
 548.088;  507.5; 3.5514e-003
 548.97;  508.375; 3.5571e-003
 549.844;  509.25; 3.5610e-003
 550.72;  510.125; 3.5686e-003
 551.587;  511; 3.5754e-003
 552.466;  511.875; 3.5811e-003
 553.35;  512.75; 3.5870e-003
 554.223;  513.625; 3.5940e-003
 555.097;  514.5; 3.6001e-003
 555.973;  515.375; 3.6053e-003
 556.841;  516.25; 3.6105e-003
 557.718;  517.125; 3.6188e-003
 558.592;  518; 3.6250e-003
 559.464;  518.875; 3.6306e-003
 560.352;  519.75; 3.6371e-003
 561.217;  520.625; 3.6422e-003
 562.094;  521.5; 3.6498e-003
 562.969;  522.375; 3.6521e-003
 563.839;  523.25; 3.6594e-003
 564.719;  524.125; 3.6652e-003
 565.593;  525; 3.6714e-003
 566.466;  525.875; 3.6769e-003
 567.349;  526.75; 3.6812e-003
 568.218;  527.625; 3.6880e-003
 569.102;  528.5; 3.6951e-003
 569.965;  529.375; 3.6999e-003
 570.841;  530.25; 3.7069e-003
 571.725;  531.125; 3.7144e-003
 572.592;  532; 3.7196e-003
 573.464;  532.875; 3.7255e-003
 574.343;  533.75; 3.7316e-003
 575.215;  534.625; 3.7391e-003
 576.094;  535.5; 3.7444e-003
 576.965;  536.375; 3.7505e-003
 577.844;  537.25; 3.7554e-003
 578.718;  538.125; 3.7615e-003
 579.591;  539; 3.7685e-003
 580.466;  539.875; 3.7758e-003
 581.343;  540.75; 3.7785e-003
 582.215;  541.625; 3.7851e-003
 583.089;  542.5; 3.7919e-003
 583.964;  543.375; 3.7976e-003
 584.842;  544.25; 3.8049e-003
 585.722;  545.125; 3.8090e-003
 586.591;  546; 3.8174e-003
 587.465;  546.875; 3.8234e-003
 588.347;  547.75; 3.8273e-003
 589.215;  548.625; 3.8348e-003
 590.091;  549.5; 3.8422e-003
 590.962;  550.375; 3.8488e-003
 591.841;  551.25; 3.8546e-003
 592.72;  552.125; 3.8628e-003
 593.59;  553; 3.8684e-003
 594.464;  553.875; 3.8742e-003
 595.347;  554.75; 3.8805e-003
 596.213;  555.625; 3.8851e-003
 597.097;  556.5; 3.8931e-003
 597.964;  557.375; 3.8981e-003
 598.836;  558.25; 3.9068e-003
 599.724;  559.125; 3.9116e-003
 600.591;  560; 3.9181e-003
 601.466;  560.875; 3.9244e-003
 602.332;  561.75; 3.9318e-003
 603.219;  562.625; 3.9369e-003
 604.083;  563.5; 3.9435e-003
 604.965;  564.375; 3.9485e-003
 605.838;  565.25; 3.9556e-003
 606.711;  566.125; 3.9637e-003
 607.586;  567; 3.9715e-003
 608.462;  567.875; 3.9787e-003
 609.334;  568.75; 3.9845e-003
 610.214;  569.625; 3.9906e-003
 611.083;  570.5; 3.9983e-003
 611.962;  571.375; 4.0043e-003
 612.836;  572.25; 4.0113e-003
 613.704;  573.125; 4.0171e-003
 614.59;  574; 4.0253e-003
 615.467;  574.875; 4.0321e-003
 616.328;  575.75; 4.0386e-003
 617.213;  576.625; 4.0447e-003
 618.079;  577.5; 4.0498e-003
 618.965;  578.375; 4.0570e-003
 619.84;  579.25; 4.0622e-003
 620.713;  580.125; 4.0674e-003
 621.585;  581; 4.0748e-003
 622.459;  581.875; 4.0818e-003
 623.338;  582.75; 4.0877e-003
 624.216;  583.625; 4.0943e-003
 625.082;  584.5; 4.1012e-003
 625.963;  585.375; 4.1086e-003
 626.842;  586.25; 4.1140e-003
 627.711;  587.125; 4.1205e-003
 628.585;  588; 4.1275e-003
 629.455;  588.875; 4.1329e-003
 630.326;  589.75; 4.1407e-003
 631.206;  590.625; 4.1486e-003
 632.076;  591.5; 4.1533e-003
 632.96;  592.375; 4.1616e-003
 633.834;  593.25; 4.1671e-003
 634.711;  594.125; 4.1742e-003
 635.589;  595; 4.1807e-003
 636.453;  595.875; 4.1876e-003
 637.335;  596.75; 4.1937e-003
 638.201;  597.625; 4.2007e-003
 639.083;  598.5; 4.2058e-003
 639.956;  599.375; 4.2138e-003
 640.826;  600.25; 4.2225e-003
 641.712;  601.125; 4.2281e-003
 642.583;  602; 4.2355e-003
 643.452;  602.875; 4.2429e-003
 644.336;  603.75; 4.2501e-003
 645.203;  604.625; 4.2568e-003
 646.086;  605.5; 4.2637e-003
 646.958;  606.375; 4.2702e-003
 647.83;  607.25; 4.2760e-003
 648.699;  608.125; 4.2805e-003
 649.576;  609; 4.2900e-003
 650.454;  609.875; 4.2973e-003
 651.327;  610.75; 4.3049e-003
 652.202;  611.625; 4.3087e-003
 653.078;  612.5; 4.3177e-003
 653.95;  613.375; 4.3219e-003
 654.825;  614.25; 4.3283e-003
 655.699;  615.125; 4.3391e-003
 656.578;  616; 4.3436e-003
 657.455;  616.875; 4.3515e-003
 658.324;  617.75; 4.3576e-003
 659.199;  618.625; 4.3672e-003
 660.075;  619.5; 4.3743e-003
 660.945;  620.375; 4.3789e-003
 661.83;  621.25; 4.3881e-003
 662.695;  622.125; 4.3932e-003
 663.567;  623; 4.4000e-003
 664.45;  623.875; 4.4067e-003
 665.333;  624.75; 4.4153e-003
 666.203;  625.625; 4.4212e-003
 667.076;  626.5; 4.4278e-003
 667.954;  627.375; 4.4335e-003
 668.828;  628.25; 4.4428e-003
 669.698;  629.125; 4.4500e-003
 670.578;  630; 4.4544e-003
 671.45;  630.875; 4.4636e-003
 672.317;  631.75; 4.4696e-003
 673.206;  632.625; 4.4759e-003
 674.071;  633.5; 4.4843e-003
 674.956;  634.375; 4.4917e-003
 675.82;  635.25; 4.4976e-003
 676.695;  636.125; 4.5047e-003
 677.574;  637; 4.5110e-003
 678.446;  637.875; 4.5203e-003
 679.327;  638.75; 4.5246e-003
 680.194;  639.625; 4.5337e-003
 681.066;  640.5; 4.5419e-003
 681.959;  641.375; 4.5491e-003
 682.834;  642.25; 4.5546e-003
 683.708;  643.125; 4.5623e-003
 684.582;  644; 4.5657e-003
 685.447;  644.875; 4.5760e-003
 686.326;  645.75; 4.5832e-003
 687.204;  646.625; 4.5897e-003
 688.075;  647.5; 4.5972e-003
 688.949;  648.375; 4.6036e-003
 689.821;  649.25; 4.6098e-003
 690.703;  650.125; 4.6179e-003
 691.575;  651; 4.6258e-003
 692.447;  651.875; 4.6319e-003
 693.321;  652.75; 4.6402e-003
 694.196;  653.625; 4.6459e-003
 695.078;  654.5; 4.6541e-003
 695.944;  655.375; 4.6613e-003
 696.825;  656.25; 4.6687e-003
 697.702;  657.125; 4.6773e-003
 698.573;  658; 4.6841e-003
 699.454;  658.875; 4.6902e-003
 700.321;  659.75; 4.6959e-003
 701.197;  660.625; 4.7052e-003
 702.077;  661.5; 4.7137e-003
 702.947;  662.375; 4.7200e-003
 703.829;  663.25; 4.7281e-003
 704.694;  664.125; 4.7327e-003
 705.572;  665; 4.7422e-003
 706.445;  665.875; 4.7466e-003
 707.322;  666.75; 4.7548e-003
 708.207;  667.625; 4.7633e-003
 709.073;  668.5; 4.7679e-003
 709.945;  669.375; 4.7745e-003
 710.827;  670.25; 4.7833e-003
 711.698;  671.125; 4.7920e-003
 712.571;  672; 4.7984e-003
 713.44;  672.875; 4.8064e-003
 714.328;  673.75; 4.8119e-003
 715.2;  674.625; 4.8196e-003
 716.07;  675.5; 4.8277e-003
 716.948;  676.375; 4.8372e-003
 717.818;  677.25; 4.8444e-003
 718.703;  678.125; 4.8540e-003
 719.564;  679; 4.8605e-003
 720.442;  679.875; 4.8690e-003
 721.321;  680.75; 4.8755e-003
 722.194;  681.625; 4.8838e-003
 723.062;  682.5; 4.8920e-003
 723.94;  683.375; 4.8972e-003
 724.812;  684.25; 4.9060e-003
 725.693;  685.125; 4.9126e-003
 726.568;  686; 4.9177e-003
 727.444;  686.875; 4.9286e-003
 728.315;  687.75; 4.9356e-003
 729.186;  688.625; 4.9439e-003
 730.075;  689.5; 4.9503e-003
 730.948;  690.375; 4.9576e-003
 731.829;  691.25; 4.9659e-003
 732.696;  692.125; 4.9739e-003
 733.573;  693; 4.9814e-003
 734.435;  693.875; 4.9883e-003
 735.311;  694.75; 4.9962e-003
 736.193;  695.625; 5.0028e-003
 737.061;  696.5; 5.0095e-003
 737.943;  697.375; 5.0187e-003
 738.814;  698.25; 5.0257e-003
 739.688;  699.125; 5.0349e-003
 740.569;  700; 5.0418e-003
 741.436;  700.875; 5.0511e-003
 742.312;  701.75; 5.0577e-003
 743.2;  702.625; 5.0654e-003
 744.063;  703.5; 5.0692e-003
 744.942;  704.375; 5.0794e-003
 745.809;  705.25; 5.0860e-003
 746.693;  706.125; 5.0966e-003
 747.567;  707; 5.1025e-003
 748.449;  707.875; 5.1102e-003
 749.318;  708.75; 5.1170e-003
 750.183;  709.625; 5.1263e-003
 751.065;  710.5; 5.1307e-003
 751.944;  711.375; 5.1382e-003
 752.814;  712.25; 5.1485e-003
 753.687;  713.125; 5.1581e-003
 754.56;  714; 5.1646e-003
 755.437;  714.875; 5.1704e-003
 756.306;  715.75; 5.1806e-003
 757.192;  716.625; 5.1898e-003
 758.061;  717.5; 5.1980e-003
 758.928;  718.375; 5.2041e-003
 759.804;  719.25; 5.2133e-003
 760.687;  720.125; 5.2214e-003
 761.563;  721; 5.2296e-003
 762.438;  721.875; 5.2374e-003
 763.31;  722.75; 5.2453e-003
 764.193;  723.625; 5.2534e-003
 765.063;  724.5; 5.2634e-003
 765.945;  725.375; 5.2717e-003
 766.814;  726.25; 5.2807e-003
 767.682;  727.125; 5.2870e-003
 768.561;  728; 5.2971e-003
 769.43;  728.875; 5.3020e-003
 770.313;  729.75; 5.3087e-003
 771.18;  730.625; 5.3183e-003
 772.067;  731.5; 5.3281e-003
 772.935;  732.375; 5.3373e-003
 773.816;  733.25; 5.3445e-003
 774.686;  734.125; 5.3516e-003
 775.558;  735; 5.3606e-003
 776.442;  735.875; 5.3660e-003
 777.307;  736.75; 5.3715e-003
 778.182;  737.625; 5.3822e-003
 779.056;  738.5; 5.3922e-003
 779.931;  739.375; 5.3976e-003
 780.812;  740.25; 5.4091e-003
 781.682;  741.125; 5.4158e-003
 782.556;  742; 5.4211e-003
 783.434;  742.875; 5.4311e-003
 784.31;  743.75; 5.4389e-003
 785.19;  744.625; 5.4500e-003
 786.062;  745.5; 5.4553e-003
 786.928;  746.375; 5.4628e-003
 787.802;  747.25; 5.4730e-003
 788.682;  748.125; 5.4816e-003
 789.56;  749; 5.4897e-003
 790.429;  749.875; 5.4975e-003
 791.302;  750.75; 5.5047e-003
 792.194;  751.625; 5.5130e-003
 793.052;  752.5; 5.5208e-003
 793.938;  753.375; 5.5270e-003
 794.807;  754.25; 5.5383e-003
 795.684;  755.125; 5.5495e-003
 796.558;  756; 5.5562e-003
 797.437;  756.875; 5.5650e-003
 798.312;  757.75; 5.5709e-003
 799.182;  758.625; 5.5786e-003
 800.053;  759.5; 5.5901e-003
 800.927;  760.375; 5.5979e-003
 801.81;  761.25; 5.6050e-003
 802.688;  762.125; 5.6138e-003
 803.562;  763; 5.6238e-003
 804.433;  763.875; 5.6297e-003
 805.302;  764.75; 5.6394e-003
 806.181;  765.625; 5.6481e-003
 807.055;  766.5; 5.6574e-003
 807.935;  767.375; 5.6654e-003
 808.805;  768.25; 5.6737e-003
 809.684;  769.125; 5.6805e-003
 810.554;  770; 5.6894e-003
 811.426;  770.875; 5.6972e-003
 812.31;  771.75; 5.7057e-003
 813.185;  772.625; 5.7116e-003
 814.059;  773.5; 5.7231e-003
 814.928;  774.375; 5.7311e-003
 815.811;  775.25; 5.7390e-003
 816.686;  776.125; 5.7451e-003
 817.559;  777; 5.7536e-003
 818.42;  777.875; 5.7649e-003
 819.312;  778.75; 5.7727e-003
 820.178;  779.625; 5.7809e-003
 821.064;  780.5; 5.7856e-003
 821.936;  781.375; 5.7965e-003
 822.801;  782.25; 5.8032e-003
 823.679;  783.125; 5.8114e-003
 824.553;  784; 5.8192e-003
 825.441;  784.875; 5.8272e-003
 826.302;  785.75; 5.8356e-003
 827.185;  786.625; 5.8445e-003
 828.052;  787.5; 5.8524e-003
 828.924;  788.375; 5.8613e-003
 829.798;  789.25; 5.8683e-003
 830.683;  790.125; 5.8761e-003
 831.562;  791; 5.8877e-003
 832.43;  791.875; 5.8961e-003
 833.314;  792.75; 5.9035e-003
 834.171;  793.625; 5.9130e-003
 835.052;  794.5; 5.9209e-003
 835.934;  795.375; 5.9282e-003
 836.802;  796.25; 5.9387e-003
 837.683;  797.125; 5.9448e-003
 838.55;  798; 5.9546e-003
 839.436;  798.875; 5.9605e-003
 840.301;  799.75; 5.9671e-003
 841.171;  800.625; 5.9788e-003
 842.069;  801.5; 5.9870e-003
 842.926;  802.375; 5.9964e-003
 843.813;  803.25; 6.0059e-003
 844.671;  804.125; 6.0134e-003
 845.558;  805; 6.0216e-003
 846.426;  805.875; 6.0295e-003
 847.309;  806.75; 6.0386e-003
 848.184;  807.625; 6.0460e-003
 849.052;  808.5; 6.0532e-003
 849.933;  809.375; 6.0637e-003
 850.797;  810.25; 6.0702e-003
 851.684;  811.125; 6.0791e-003
 852.551;  812; 6.0867e-003
 853.43;  812.875; 6.0946e-003
 854.304;  813.75; 6.0987e-003
 855.177;  814.625; 6.1125e-003
 856.056;  815.5; 6.1211e-003
 856.925;  816.375; 6.1294e-003
 857.806;  817.25; 6.1374e-003
 858.673;  818.125; 6.1473e-003
 859.558;  819; 6.1561e-003
 860.43;  819.875; 6.1619e-003
 861.3;  820.75; 6.1723e-003
 862.176;  821.625; 6.1800e-003
 863.047;  822.5; 6.1890e-003
 863.92;  823.375; 6.1963e-003
 864.792;  824.25; 6.2073e-003
 865.669;  825.125; 6.2148e-003
 866.544;  826; 6.2234e-003
 867.421;  826.875; 6.2333e-003
 868.304;  827.75; 6.2399e-003
 869.179;  828.625; 6.2477e-003
 870.053;  829.5; 6.2584e-003
 870.929;  830.375; 6.2672e-003
 871.801;  831.25; 6.2765e-003
 872.685;  832.125; 6.2863e-003
 873.551;  833; 6.2934e-003
 874.428;  833.875; 6.3006e-003
 875.299;  834.75; 6.3063e-003
 876.165;  835.625; 6.3204e-003
 877.044;  836.5; 6.3308e-003
 877.916;  837.375; 6.3397e-003
 878.801;  838.25; 6.3451e-003
 879.668;  839.125; 6.3575e-003
 880.547;  840; 6.3642e-003
 881.425;  840.875; 6.3750e-003
 882.298;  841.75; 6.3838e-003
 883.167;  842.625; 6.3944e-003
 884.046;  843.5; 6.4014e-003
 884.926;  844.375; 6.4110e-003
 885.795;  845.25; 6.4217e-003
 886.675;  846.125; 6.4310e-003
 887.545;  847; 6.4390e-003
 888.426;  847.875; 6.4471e-003
 889.3;  848.75; 6.4531e-003
 890.177;  849.625; 6.4643e-003
 891.046;  850.5; 6.4737e-003
 891.918;  851.375; 6.4808e-003
 892.794;  852.25; 6.4914e-003
 893.665;  853.125; 6.5008e-003
 894.543;  854; 6.5109e-003
 895.418;  854.875; 6.5210e-003
 896.299;  855.75; 6.5310e-003
 897.167;  856.625; 6.5387e-003
 898.049;  857.5; 6.5494e-003
 898.918;  858.375; 6.5598e-003
 899.793;  859.25; 6.5654e-003
 900.667;  860.125; 6.5753e-003
 901.545;  861; 6.5851e-003
 902.412;  861.875; 6.5956e-003
 903.3;  862.75; 6.6037e-003
 904.168;  863.625; 6.6128e-003
 905.053;  864.5; 6.6186e-003
 905.921;  865.375; 6.6272e-003
 906.795;  866.25; 6.6375e-003
 907.686;  867.125; 6.6439e-003
 908.539;  868; 6.6555e-003
 909.426;  868.875; 6.6628e-003
 910.297;  869.75; 6.6718e-003
 911.174;  870.625; 6.6805e-003
 912.042;  871.5; 6.6922e-003
 912.911;  872.375; 6.6986e-003
 913.805;  873.25; 6.7091e-003
 914.67;  874.125; 6.7167e-003
 915.554;  875; 6.7255e-003
 916.409;  875.875; 6.7367e-003
 917.304;  876.75; 6.7449e-003
 918.167;  877.625; 6.7554e-003
 919.041;  878.5; 6.7631e-003
 919.912;  879.375; 6.7743e-003
 920.793;  880.25; 6.7816e-003
 921.658;  881.125; 6.7895e-003
 922.539;  882; 6.8016e-003
 923.423;  882.875; 6.8106e-003
 924.287;  883.75; 6.8172e-003
 925.157;  884.625; 6.8269e-003
 926.039;  885.5; 6.8335e-003
 926.927;  886.375; 6.8469e-003
 927.789;  887.25; 6.8568e-003
 928.663;  888.125; 6.8647e-003
 929.544;  889; 6.8737e-003
 930.421;  889.875; 6.8853e-003
 931.289;  890.75; 6.8897e-003
 932.169;  891.625; 6.8997e-003
 933.041;  892.5; 6.9133e-003
 933.92;  893.375; 6.9216e-003
 934.788;  894.25; 6.9309e-003
 935.659;  895.125; 6.9423e-003
 936.537;  896; 6.9503e-003
 937.41;  896.875; 6.9598e-003
 938.275;  897.75; 6.9694e-003
 939.155;  898.625; 6.9801e-003
 940.04;  899.5; 6.9854e-003
 940.911;  900.375; 7.0012e-003
 941.783;  901.25; 7.0106e-003
 942.666;  902.125; 7.0207e-003
 943.548;  903; 7.0270e-003
 944.411;  903.875; 7.0359e-003
 945.288;  904.75; 7.0461e-003
 946.159;  905.625; 7.0547e-003
 947.03;  906.5; 7.0635e-003
 947.908;  907.375; 7.0740e-003
 948.788;  908.25; 7.0821e-003
 949.671;  909.125; 7.0913e-003
 950.537;  910; 7.1009e-003
 951.427;  910.875; 7.1113e-003
 952.284;  911.75; 7.1192e-003
 953.169;  912.625; 7.1288e-003
 954.033;  913.5; 7.1381e-003
 954.908;  914.375; 7.1516e-003
 955.795;  915.25; 7.1589e-003
 956.653;  916.125; 7.1651e-003
 957.546;  917; 7.1796e-003
 958.41;  917.875; 7.1902e-003
 959.288;  918.75; 7.1918e-003
 960.163;  919.625; 7.2084e-003
 961.039;  920.5; 7.2136e-003
 961.901;  921.375; 7.2264e-003
 962.786;  922.25; 7.2334e-003
 963.658;  923.125; 7.2443e-003
 964.525;  924; 7.2519e-003
 965.41;  924.875; 7.2589e-003
 966.283;  925.75; 7.2710e-003
 967.16;  926.625; 7.2815e-003
 968.03;  927.5; 7.2912e-003
 968.915;  928.375; 7.3015e-003
 969.791;  929.25; 7.3093e-003
 970.662;  930.125; 7.3199e-003
 971.539;  931; 7.3309e-003
 972.408;  931.875; 7.3378e-003
 973.289;  932.75; 7.3477e-003
 974.156;  933.625; 7.3572e-003
 975.03;  934.5; 7.3660e-003
 975.915;  935.375; 7.3707e-003
 976.789;  936.25; 7.3841e-003
 977.661;  937.125; 7.3965e-003
 978.529;  938; 7.4066e-003
 979.413;  938.875; 7.4158e-003
 980.288;  939.75; 7.4240e-003
 981.168;  940.625; 7.4318e-003
 982.032;  941.5; 7.4436e-003
 982.912;  942.375; 7.4522e-003
 983.773;  943.25; 7.4604e-003
 984.656;  944.125; 7.4706e-003
 985.527;  945; 7.4773e-003
 986.406;  945.875; 7.4890e-003
 987.274;  946.75; 7.4987e-003
 988.156;  947.625; 7.5108e-003
 989.033;  948.5; 7.5189e-003
 989.91;  949.375; 7.5226e-003
 990.787;  950.25; 7.5351e-003
 991.658;  951.125; 7.5463e-003
 992.527;  952; 7.5549e-003
 993.412;  952.875; 7.5630e-003
 994.288;  953.75; 7.5729e-003
 995.158;  954.625; 7.5847e-003
 996.032;  955.5; 7.5944e-003
 996.913;  956.375; 7.6022e-003
 997.78;  957.25; 7.6106e-003
 998.659;  958.125; 7.6232e-003
 999.531;  959; 7.6316e-003
1000.41;  959.875; 7.6413e-003
1001.3;  960.75; 7.6530e-003
1002.15;  961.625; 7.6638e-003
1003.03;  962.5; 7.6737e-003
1003.92;  963.375; 7.6827e-003
1004.79;  964.25; 7.6906e-003
1005.66;  965.125; 7.6986e-003
1006.53;  966; 7.7085e-003
1007.41;  966.875; 7.7164e-003
1008.29;  967.75; 7.7279e-003
1009.16;  968.625; 7.7373e-003
1010.03;  969.5; 7.7463e-003
1010.91;  970.375; 7.7573e-003
1011.78;  971.25; 7.7637e-003
1012.66;  972.125; 7.7781e-003
1013.52;  973; 7.7827e-003
1014.42;  973.875; 7.7961e-003
1015.28;  974.75; 7.8079e-003
1016.16;  975.625; 7.8138e-003
1017.04;  976.5; 7.8263e-003
1017.91;  977.375; 7.8346e-003
1018.79;  978.25; 7.8441e-003
1019.66;  979.125; 7.8541e-003
1020.54;  980; 7.8642e-003
1021.41;  980.875; 7.8686e-003
1022.3;  981.75; 7.8805e-003
1023.17;  982.625; 7.8875e-003
1024.03;  983.5; 7.8994e-003
1024.9;  984.375; 7.9110e-003
1025.78;  985.25; 7.9200e-003
1026.65;  986.125; 7.9296e-003
1027.54;  987; 7.9413e-003
1028.41;  987.875; 7.9501e-003
1029.28;  988.75; 7.9547e-003
1030.16;  989.625; 7.9640e-003
1031.03;  990.5; 7.9755e-003
1031.9;  991.375; 7.9846e-003
1032.79;  992.25; 7.9903e-003
1033.65;  993.125; 8.0015e-003
1034.54;  994; 8.0104e-003
1035.41;  994.875; 8.0230e-003
1036.29;  995.75; 8.0334e-003
1037.17;  996.625; 8.0431e-003
1038.05;  997.5; 8.0535e-003
1038.91;  998.375; 8.0608e-003
1039.8;  999.25; 8.0675e-003
1040.65; 1000.12; 8.0775e-003
1041.54; 1001; 8.0900e-003
1042.4; 1001.88; 8.1032e-003
1043.28; 1002.75; 8.1111e-003
1044.16; 1003.62; 8.1211e-003
1045.03; 1004.5; 8.1323e-003
1045.91; 1005.38; 8.1330e-003
1046.78; 1006.25; 8.1494e-003
1047.66; 1007.12; 8.1591e-003
1048.54; 1008; 8.1683e-003
1049.41; 1008.88; 8.1797e-003
1050.29; 1009.75; 8.1847e-003
1051.16; 1010.62; 8.1946e-003
1052.03; 1011.5; 8.2032e-003
1052.91; 1012.38; 8.2190e-003
1053.77; 1013.25; 8.2289e-003
1054.65; 1014.12; 8.2342e-003
1055.52; 1015; 8.2486e-003
1056.4; 1015.88; 8.2561e-003
1057.27; 1016.75; 8.2650e-003
1058.16; 1017.62; 8.2733e-003
1059.03; 1018.5; 8.2861e-003
1059.9; 1019.38; 8.2906e-003
1060.79; 1020.25; 8.3042e-003
1061.65; 1021.12; 8.3094e-003
1062.52; 1022; 8.3240e-003
1063.41; 1022.88; 8.3346e-003
1064.29; 1023.75; 8.3455e-003
1065.17; 1024.62; 8.3552e-003
1066.03; 1025.5; 8.3645e-003
1066.92; 1026.38; 8.3710e-003
1067.78; 1027.25; 8.3797e-003
1068.67; 1028.12; 8.3930e-003
1069.52; 1029; 8.4005e-003
1070.4; 1029.88; 8.4103e-003
1071.27; 1030.75; 8.4210e-003
1072.14; 1031.62; 8.4299e-003
1073.02; 1032.5; 8.4403e-003
1073.9; 1033.38; 8.4480e-003
1074.78; 1034.25; 8.4601e-003
1075.65; 1035.12; 8.4661e-003
1076.52; 1036; 8.4771e-003
1077.41; 1036.88; 8.4900e-003
1078.28; 1037.75; 8.4985e-003
1079.14; 1038.62; 8.5108e-003
1080.03; 1039.5; 8.5194e-003
1080.91; 1040.38; 8.5322e-003
1081.77; 1041.25; 8.5405e-003
1082.65; 1042.12; 8.5465e-003
1083.52; 1043; 8.5574e-003
1084.38; 1043.88; 8.5668e-003
1085.29; 1044.75; 8.5743e-003
1086.15; 1045.62; 8.5865e-003
1087.03; 1046.5; 8.5972e-003
1087.91; 1047.38; 8.6069e-003
1088.77; 1048.25; 8.6128e-003
1089.65; 1049.12; 8.6214e-003
1090.52; 1050; 8.6336e-003
1091.4; 1050.88; 8.6425e-003
1092.28; 1051.75; 8.6542e-003
1093.16; 1052.62; 8.6638e-003
1094.03; 1053.5; 8.6768e-003
1094.9; 1054.38; 8.6857e-003
1095.76; 1055.25; 8.6952e-003
1096.65; 1056.12; 8.7023e-003
1097.53; 1057; 8.7121e-003
1098.41; 1057.88; 8.7220e-003
1099.27; 1058.75; 8.7352e-003
1100.16; 1059.62; 8.7450e-003
1101.04; 1060.5; 8.7522e-003
1101.91; 1061.38; 8.7593e-003
1102.78; 1062.25; 8.7715e-003
1103.65; 1063.12; 8.7836e-003
1104.54; 1064; 8.7862e-003
1105.43; 1064.88; 8.7982e-003
1106.28; 1065.75; 8.8127e-003
1107.15; 1066.62; 8.8233e-003
1108.03; 1067.5; 8.8311e-003
1108.89; 1068.38; 8.8402e-003
1109.77; 1069.25; 8.8511e-003
1110.65; 1070.12; 8.8602e-003
1111.53; 1071; 8.8688e-003
1112.4; 1071.88; 8.8777e-003
1113.26; 1072.75; 8.8892e-003
1114.14; 1073.62; 8.8968e-003
1115.02; 1074.5; 8.9106e-003
1115.9; 1075.38; 8.9200e-003
1116.78; 1076.25; 8.9256e-003
1117.65; 1077.12; 8.9401e-003
1118.53; 1078; 8.9486e-003
1119.4; 1078.88; 8.9615e-003
1120.28; 1079.75; 8.9706e-003
1121.15; 1080.62; 8.9804e-003
1122.03; 1081.5; 8.9880e-003
1122.9; 1082.38; 8.9943e-003
1123.77; 1083.25; 9.0029e-003
1124.63; 1084.12; 9.0129e-003
1125.53; 1085; 9.0228e-003
1126.39; 1085.88; 9.0350e-003
1127.28; 1086.75; 9.0426e-003
1128.14; 1087.62; 9.0538e-003
1129.02; 1088.5; 9.0589e-003
1129.89; 1089.38; 9.0739e-003
1130.78; 1090.25; 9.0799e-003
1131.65; 1091.12; 9.0927e-003
1132.53; 1092; 9.1043e-003
1133.41; 1092.88; 9.1116e-003
1134.29; 1093.75; 9.1211e-003
1135.15; 1094.62; 9.1293e-003
1136.02; 1095.5; 9.1427e-003
1136.89; 1096.38; 9.1542e-003
1137.78; 1097.25; 9.1615e-003
1138.66; 1098.12; 9.1748e-003
1139.52; 1099; 9.1794e-003
1140.39; 1099.88; 9.1902e-003
1141.26; 1100.75; 9.2018e-003
1142.13; 1101.62; 9.2119e-003
1143.03; 1102.5; 9.2225e-003
1143.9; 1103.38; 9.2260e-003
1144.78; 1104.25; 9.2420e-003
1145.65; 1105.12; 9.2465e-003
1146.53; 1106; 9.2583e-003
1147.39; 1106.88; 9.2689e-003
1148.26; 1107.75; 9.2774e-003
1149.16; 1108.62; 9.2866e-003
1150.03; 1109.5; 9.3003e-003
1150.89; 1110.38; 9.3103e-003
1151.77; 1111.25; 9.3189e-003
1152.65; 1112.12; 9.3278e-003
1153.53; 1113; 9.3421e-003
1154.4; 1113.88; 9.3499e-003
1155.29; 1114.75; 9.3573e-003
1156.14; 1115.62; 9.3707e-003
1157.03; 1116.5; 9.3747e-003
1157.89; 1117.38; 9.3873e-003
1158.78; 1118.25; 9.3927e-003
1159.64; 1119.12; 9.4090e-003
1160.52; 1120; 9.4162e-003
1161.39; 1120.88; 9.4265e-003
1162.27; 1121.75; 9.4346e-003
1163.15; 1122.62; 9.4438e-003
1164.03; 1123.5; 9.4512e-003
1164.9; 1124.38; 9.4627e-003
1165.77; 1125.25; 9.4718e-003
1166.64; 1126.12; 9.4794e-003
1167.52; 1127; 9.4897e-003
1168.4; 1127.88; 9.5017e-003
1169.27; 1128.75; 9.5093e-003
1170.16; 1129.62; 9.5224e-003
1171.04; 1130.5; 9.5336e-003
1171.91; 1131.38; 9.5421e-003
1172.79; 1132.25; 9.5527e-003
1173.65; 1133.12; 9.5623e-003
1174.54; 1134; 9.5724e-003
1175.39; 1134.88; 9.5817e-003
1176.28; 1135.75; 9.5839e-003
1177.13; 1136.62; 9.5995e-003
1178.02; 1137.5; 9.6112e-003
1178.89; 1138.38; 9.6165e-003
1179.76; 1139.25; 9.6278e-003
1180.65; 1140.12; 9.6444e-003
1181.53; 1141; 9.6549e-003
1182.42; 1141.88; 9.6684e-003
1183.28; 1142.75; 9.6807e-003
1184.16; 1143.62; 9.6856e-003
1185.02; 1144.5; 9.7013e-003
1185.9; 1145.38; 9.7169e-003
1186.77; 1146.25; 9.7288e-003
1187.66; 1147.12; 9.7382e-003
1188.53; 1148; 9.7412e-003
1189.41; 1148.88; 9.7554e-003
1190.27; 1149.75; 9.7667e-003
1191.15; 1150.62; 9.7765e-003
1192.03; 1151.5; 9.7843e-003
1192.9; 1152.38; 9.7884e-003
1193.78; 1153.25; 9.7949e-003
1194.64; 1154.12; 9.8022e-003
1195.53; 1155; 9.8091e-003
1196.41; 1155.88; 9.8194e-003
1197.28; 1156.75; 9.8279e-003
1198.15; 1157.62; 9.8299e-003
1199.03; 1158.5; 9.8382e-003
1199.88; 1159.38; 9.8472e-003
1200.75; 1160.25; 9.8536e-003
1201.65; 1161.12; 9.8570e-003
1202.52; 1162; 9.8631e-003
1203.38; 1162.88; 9.8702e-003
1204.26; 1163.75; 9.8767e-003
1205.13; 1164.62; 9.8789e-003
1206.03; 1165.5; 9.8861e-003
1206.9; 1166.38; 9.8927e-003
1207.76; 1167.25; 9.9018e-003
1208.66; 1168.12; 9.9066e-003
1209.5; 1169; 9.9113e-003
1210.38; 1169.88; 9.9204e-003
1211.26; 1170.75; 9.9276e-003
1212.15; 1171.62; 9.9305e-003
1213.02; 1172.5; 9.9416e-003
1213.9; 1173.38; 9.9439e-003
1214.78; 1174.25; 9.9557e-003
1215.66; 1175.12; 9.9571e-003
1216.54; 1176; 9.9714e-003
1217.39; 1176.88; 9.9767e-003
1218.28; 1177.75; 9.9814e-003
1219.14; 1178.62; 9.9872e-003
1220.01; 1179.5; 9.9925e-003
1220.9; 1180.38; 1.0002e-002
1221.78; 1181.25; 1.0010e-002
1222.66; 1182.12; 1.0015e-002
1223.52; 1183; 1.0023e-002
1224.4; 1183.88; 1.0031e-002
1225.27; 1184.75; 1.0031e-002
1226.13; 1185.62; 1.0041e-002
1227.02; 1186.5; 1.0048e-002
1227.9; 1187.38; 1.0051e-002
1228.77; 1188.25; 1.0063e-002
1229.64; 1189.12; 1.0061e-002
1230.52; 1190; 1.0075e-002
1231.4; 1190.88; 1.0077e-002
1232.25; 1191.75; 1.0086e-002
1233.12; 1192.62; 1.0090e-002
1234.01; 1193.5; 1.0096e-002
1234.88; 1194.38; 1.0093e-002
1235.8; 1195.25; 1.0102e-002
1236.64; 1196.12; 1.0109e-002
1237.5; 1197; 1.0118e-002
1238.4; 1197.88; 1.0113e-002
1239.28; 1198.75; 1.0123e-002
1240.14; 1199.62; 1.0133e-002
1241.03; 1200.5; 1.0138e-002
1241.9; 1201.38; 1.0138e-002
1242.77; 1202.25; 1.0153e-002
1243.63; 1203.12; 1.0161e-002
1244.53; 1204; 1.0167e-002
1245.4; 1204.88; 1.0174e-002
1246.27; 1205.75; 1.0180e-002
1247.16; 1206.62; 1.0185e-002
1248.03; 1207.5; 1.0197e-002
1248.89; 1208.38; 1.0206e-002
1249.78; 1209.25; 1.0212e-002
1250.66; 1210.12; 1.0220e-002
1251.54; 1211; 1.0222e-002
1252.4; 1211.88; 1.0227e-002
1253.27; 1212.75; 1.0239e-002
1254.13; 1213.62; 1.0240e-002
1255.02; 1214.5; 1.0252e-002
1255.88; 1215.38; 1.0256e-002
1256.78; 1216.25; 1.0253e-002
1257.68; 1217.12; 1.0260e-002
1258.51; 1218; 1.0263e-002
1259.39; 1218.88; 1.0273e-002
1260.27; 1219.75; 1.0271e-002
1261.15; 1220.62; 1.0277e-002
1262; 1221.5; 1.0284e-002
1262.89; 1222.38; 1.0287e-002
1263.77; 1223.25; 1.0295e-002
1264.68; 1224.12; 1.0293e-002
1265.54; 1225; 1.0299e-002
1266.4; 1225.88; 1.0307e-002
1267.26; 1226.75; 1.0313e-002
1268.14; 1227.62; 1.0312e-002
1269.01; 1228.5; 1.0317e-002
1269.89; 1229.38; 1.0327e-002
1270.77; 1230.25; 1.0325e-002
1271.66; 1231.12; 1.0325e-002
1272.51; 1232; 1.0340e-002
1273.39; 1232.88; 1.0344e-002
1274.28; 1233.75; 1.0345e-002
1275.15; 1234.62; 1.0351e-002
1276.02; 1235.5; 1.0350e-002
1276.9; 1236.38; 1.0353e-002
1277.78; 1237.25; 1.0359e-002
1278.65; 1238.12; 1.0362e-002
1279.49; 1239; 1.0365e-002
1280.37; 1239.88; 1.0360e-002
1281.25; 1240.75; 1.0359e-002
1282.15; 1241.62; 1.0369e-002
1283.01; 1242.5; 1.0376e-002
1283.89; 1243.38; 1.0382e-002
1284.77; 1244.25; 1.0387e-002
1285.65; 1245.12; 1.0391e-002
1286.51; 1246; 1.0395e-002
1287.4; 1246.88; 1.0401e-002
1288.26; 1247.75; 1.0401e-002
1289.16; 1248.62; 1.0402e-002
1290.02; 1249.5; 1.0409e-002
1290.9; 1250.38; 1.0409e-002
1291.78; 1251.25; 1.0409e-002
1292.66; 1252.12; 1.0408e-002
1293.53; 1253; 1.0406e-002
1294.39; 1253.88; 1.0416e-002
1295.29; 1254.75; 1.0422e-002
1296.15; 1255.62; 1.0427e-002
1297.05; 1256.5; 1.0434e-002
1297.9; 1257.38; 1.0438e-002
1298.8; 1258.25; 1.0441e-002
1299.66; 1259.12; 1.0443e-002
1300.53; 1260; 1.0445e-002
1301.42; 1260.88; 1.0444e-002
1302.28; 1261.75; 1.0448e-002
1303.18; 1262.62; 1.0449e-002
1304.01; 1263.5; 1.0451e-002
1304.91; 1264.38; 1.0447e-002
1305.78; 1265.25; 1.0454e-002
1306.65; 1266.12; 1.0451e-002
1307.52; 1267; 1.0448e-002
1308.41; 1267.88; 1.0458e-002
1309.3; 1268.75; 1.0458e-002
1310.15; 1269.62; 1.0457e-002
1311.04; 1270.5; 1.0453e-002
1311.9; 1271.38; 1.0453e-002
1312.78; 1272.25; 1.0461e-002
1313.64; 1273.12; 1.0461e-002
1314.53; 1274; 1.0457e-002
1315.39; 1274.88; 1.0453e-002
1316.25; 1275.75; 1.0455e-002
1317.14; 1276.62; 1.0453e-002
1318.02; 1277.5; 1.0453e-002
1318.9; 1278.38; 1.0445e-002
1319.75; 1279.25; 1.0451e-002
1320.64; 1280.12; 1.0446e-002
1321.52; 1281; 1.0439e-002
1322.38; 1281.88; 1.0444e-002
1323.29; 1282.75; 1.0439e-002
1324.16; 1283.62; 1.0433e-002
1325.03; 1284.5; 1.0426e-002
1325.9; 1285.38; 1.0425e-002
1326.77; 1286.25; 1.0424e-002
1327.65; 1287.12; 1.0412e-002
1328.53; 1288; 1.0411e-002
1329.4; 1288.88; 1.0406e-002
1330.28; 1289.75; 1.0402e-002
1331.17; 1290.62; 1.0393e-002
1332.04; 1291.5; 1.0392e-002
1332.92; 1292.38; 1.0381e-002
1333.77; 1293.25; 1.0378e-002
1334.66; 1294.12; 1.0369e-002
1335.54; 1295; 1.0367e-002
1336.4; 1295.88; 1.0351e-002
1337.27; 1296.75; 1.0344e-002
1338.16; 1297.62; 1.0336e-002
1338.99; 1298.5; 1.0325e-002
1339.87; 1299.38; 1.0326e-002
1340.78; 1300.25; 1.0313e-002
1341.63; 1301.12; 1.0301e-002
1342.53; 1302; 1.0295e-002
1343.42; 1302.88; 1.0282e-002
1344.29; 1303.75; 1.0274e-002
1345.14; 1304.62; 1.0258e-002
1346.01; 1305.5; 1.0254e-002
1346.91; 1306.38; 1.0241e-002
1347.78; 1307.25; 1.0227e-002
1348.66; 1308.12; 1.0215e-002
1349.53; 1309; 1.0198e-002
1350.43; 1309.88; 1.0180e-002
1350.53; 1309.98; 1.0174e-002