File: K06_10_corrected.txt
#FILE:                 ;000402_K06_10_1335_Air-static.sle
#FORMAT:               ;NETZSCH5
#IDENTITY:             ;000402
#DECIMAL:              ;POINT
#SEPARATOR:            ;SEMICOLON
#MTYPE:                ;DIL
#MSUBTYPE:             ;
#INSTRUMENT:           ;NETZSCH DIL 402 C
#PROJECT:              ;
#DATE/TIME:            ;28.06.2021 11:45:13
#CORR. FILE:           ;
#LABORATORY:           ;ЌЊ
#OPERATOR:             ;Ћа«®ў Ќ.
#REMARK:               ;
#SAMPLE:               ;K06_10
#SAMPLE LENGTH /mm:    ;3.540
#MATERIAL:             ;бв ­¤ ав­л© ®Ўа §Ґж
#MEASMODE:             ;Standard Expansion
#PURGE GAS 1:          ;
#FLOW RATE 1 /(ml/min):;0
#CORR. CODE:           ;000
#RANGE:                ;40.0/10.0(K/¬Ё­)/1335.0
#SEGMENT:              ;S1/1

##Temp./шC;Time/min;dL/Lo
800.046	75.87	2.06E-01
800.342	75.9	2.05E-01
800.631	75.93	2.04E-01
800.937	75.96	2.02E-01
801.238	75.99	2.01E-01
801.541	76.02	2.00E-01
801.843	76.05	1.99E-01
802.141	76.08	1.98E-01
802.437	76.11	1.96E-01
802.727	76.14	1.95E-01
803.033	76.17	1.94E-01
803.331	76.2	1.92E-01
803.627	76.23	1.91E-01
803.93	76.26	1.90E-01
804.234	76.29	1.89E-01
804.527	76.32	1.87E-01
804.833	76.35	1.86E-01
805.131	76.38	1.85E-01
805.429	76.41	1.83E-01
805.723	76.44	1.82E-01
806.017	76.47	1.81E-01
806.316	76.5	1.80E-01
806.628	76.53	1.78E-01
806.924	76.56	1.77E-01
807.228	76.59	1.76E-01
807.524	76.62	1.74E-01
807.808	76.65	1.73E-01
808.121	76.68	1.72E-01
808.414	76.71	1.70E-01
808.708	76.74	1.69E-01
809.02	76.77	1.68E-01
809.323	76.8	1.66E-01
809.612	76.83	1.65E-01
809.915	76.86	1.64E-01
810.212	76.89	1.62E-01
810.521	76.92	1.61E-01
810.812	76.95	1.59E-01
811.111	76.98	1.58E-01
811.408	77.01	1.56E-01
811.708	77.04	1.55E-01
812.008	77.07	1.53E-01
812.314	77.1	1.52E-01
812.616	77.13	1.50E-01
812.905	77.16	1.49E-01
813.208	77.19	1.47E-01
813.502	77.22	1.46E-01
813.804	77.25	1.43E-01
814.1	77.28	1.41E-01
814.414	77.31	1.40E-01
814.719	77.34	1.39E-01
815.016	77.37	1.37E-01
815.309	77.4	1.35E-01
815.599	77.43	1.34E-01
815.9	77.46	1.32E-01
816.198	77.49	1.31E-01
816.508	77.52	1.29E-01
816.802	77.55	1.28E-01
817.101	77.58	1.26E-01
817.406	77.61	1.25E-01
817.703	77.64	1.23E-01
817.991	77.67	1.21E-01
818.297	77.7	1.19E-01
818.598	77.73	1.18E-01
818.898	77.76	1.16E-01
819.191	77.79	1.15E-01
819.498	77.82	1.13E-01
819.798	77.85	1.11E-01
820.095	77.88	1.10E-01
820.404	77.91	1.08E-01
820.71	77.94	1.07E-01
820.993	77.97	1.05E-01
821.283	78	1.03E-01
821.602	78.03	1.01E-01
821.906	78.06	9.92E-02
822.2	78.09	9.73E-02
822.5	78.12	9.59E-02
822.803	78.15	9.46E-02
823.099	78.18	9.24E-02
823.39	78.21	9.02E-02
823.69	78.24	8.91E-02
823.991	78.27	8.72E-02
824.296	78.3	8.55E-02
824.599	78.33	8.37E-02
824.899	78.36	8.19E-02
825.194	78.39	8.02E-02
825.494	78.42	7.83E-02
825.797	78.45	7.67E-02
826.088	78.48	7.49E-02
826.388	78.51	7.31E-02
826.694	78.54	7.11E-02
826.997	78.57	6.93E-02
827.288	78.6	6.73E-02
827.591	78.63	6.54E-02
827.888	78.66	6.35E-02
828.172	78.69	6.18E-02
828.493	78.72	5.99E-02
828.786	78.75	5.80E-02
829.091	78.78	5.61E-02
829.387	78.81	5.45E-02
829.684	78.84	5.24E-02
829.987	78.87	5.05E-02
830.283	78.9	4.84E-02
830.588	78.93	4.62E-02
830.888	78.96	4.46E-02
831.18	78.99	4.24E-02
831.479	79.02	4.04E-02
831.766	79.05	3.86E-02
832.082	79.08	3.62E-02
832.373	79.11	3.43E-02
832.685	79.14	3.20E-02
832.985	79.17	3.04E-02
833.277	79.2	2.86E-02
833.587	79.23	2.66E-02
833.877	79.26	2.41E-02
834.172	79.29	2.25E-02
834.473	79.32	1.99E-02
834.772	79.35	1.76E-02
835.072	79.38	1.59E-02
835.371	79.41	1.37E-02
835.679	79.44	1.18E-02
835.982	79.47	9.20E-03
836.267	79.5	7.43E-03
836.563	79.53	5.25E-03
836.867	79.56	3.07E-03
837.168	79.59	6.70E-04
837.466	79.62	-1.27E-03
837.768	79.65	-3.06E-03
838.074	79.68	-5.53E-03
838.355	79.71	-8.00E-03
838.663	79.74	-1.00E-02
838.962	79.77	-1.20E-02
839.264	79.8	-1.44E-02
839.569	79.83	-1.66E-02
839.872	79.86	-1.86E-02
840.168	79.89	-2.08E-02
840.466	79.92	-2.33E-02
840.766	79.95	-2.55E-02
841.064	79.98	-2.78E-02
841.36	80.01	-3.03E-02
841.662	80.04	-3.25E-02
841.965	80.07	-3.49E-02
842.258	80.1	-3.73E-02
842.56	80.13	-3.95E-02
842.856	80.16	-4.21E-02
843.152	80.19	-4.46E-02
843.463	80.22	-4.71E-02
843.754	80.25	-4.91E-02
844.051	80.28	-5.15E-02
844.352	80.31	-5.38E-02
844.645	80.34	-5.65E-02
844.952	80.37	-5.90E-02
845.25	80.4	-6.14E-02
845.557	80.43	-6.37E-02
845.849	80.46	-6.60E-02
846.155	80.49	-6.85E-02
846.44	80.52	-7.07E-02
846.745	80.55	-7.34E-02
847.047	80.58	-7.61E-02
847.345	80.61	-7.83E-02
847.643	80.64	-8.09E-02
847.947	80.67	-8.35E-02
848.241	80.7	-8.64E-02
848.532	80.73	-8.91E-02
848.838	80.76	-9.09E-02
849.144	80.79	-9.37E-02
849.441	80.82	-9.60E-02
849.737	80.85	-9.90E-02
850.038	80.88	-1.01E-01
850.331	80.91	-1.04E-01
850.652	80.94	-1.07E-01
850.945	80.97	-1.09E-01
851.243	81	-1.12E-01
851.534	81.03	-1.14E-01
851.836	81.06	-1.17E-01
852.129	81.09	-1.20E-01
852.44	81.12	-1.22E-01
852.731	81.15	-1.25E-01
853.039	81.18	-1.27E-01
853.338	81.21	-1.30E-01
853.622	81.24	-1.33E-01
853.926	81.27	-1.35E-01
854.229	81.3	-1.38E-01
854.53	81.33	-1.41E-01
854.83	81.36	-1.43E-01
855.117	81.39	-1.46E-01
855.427	81.42	-1.49E-01
855.727	81.45	-1.51E-01
856.03	81.48	-1.54E-01
856.326	81.51	-1.57E-01
856.62	81.54	-1.59E-01
856.907	81.57	-1.62E-01
857.209	81.6	-1.65E-01
857.518	81.63	-1.68E-01
857.823	81.66	-1.71E-01
858.119	81.69	-1.73E-01
858.42	81.72	-1.76E-01
858.705	81.75	-1.79E-01
859.008	81.78	-1.82E-01
859.308	81.81	-1.85E-01
859.613	81.84	-1.88E-01
859.908	81.87	-1.91E-01
860.211	81.9	-1.94E-01
860.51	81.93	-1.97E-01
860.803	81.96	-1.99E-01
861.106	81.99	-2.03E-01
861.414	82.02	-2.05E-01
861.702	82.05	-2.08E-01
862.002	82.08	-2.11E-01
862.3	82.11	-2.14E-01
862.596	82.14	-2.17E-01
862.909	82.17	-2.20E-01
863.21	82.2	-2.23E-01
863.499	82.23	-2.26E-01
863.795	82.26	-2.29E-01
864.093	82.29	-2.32E-01
864.397	82.32	-2.36E-01
864.695	82.35	-2.38E-01
865	82.38	-2.42E-01
865.303	82.41	-2.44E-01
865.602	82.44	-2.48E-01
865.898	82.47	-2.51E-01
866.186	82.5	-2.54E-01
866.486	82.53	-2.57E-01
866.792	82.56	-2.60E-01
867.093	82.59	-2.63E-01
867.392	82.62	-2.66E-01
867.698	82.65	-2.70E-01
867.996	82.68	-2.72E-01
868.295	82.71	-2.76E-01
868.597	82.74	-2.79E-01
868.89	82.77	-2.82E-01
869.179	82.8	-2.86E-01
869.484	82.83	-2.89E-01
869.783	82.86	-2.92E-01
870.078	82.89	-2.96E-01
870.386	82.92	-2.99E-01
870.683	82.95	-3.02E-01
870.979	82.98	-3.06E-01
871.274	83.01	-3.09E-01
871.58	83.04	-3.12E-01
871.878	83.07	-3.15E-01
872.179	83.1	-3.19E-01
872.473	83.13	-3.22E-01
872.776	83.16	-3.26E-01
873.076	83.19	-3.29E-01
873.381	83.22	-3.32E-01
873.677	83.25	-3.36E-01
873.969	83.28	-3.39E-01
874.261	83.31	-3.43E-01
874.575	83.34	-3.46E-01
874.865	83.37	-3.50E-01
875.173	83.4	-3.53E-01
875.469	83.43	-3.56E-01
875.769	83.46	-3.60E-01
876.061	83.49	-3.63E-01
876.372	83.52	-3.67E-01
876.665	83.55	-3.70E-01
876.969	83.58	-3.74E-01
877.266	83.61	-3.77E-01
877.561	83.64	-3.81E-01
877.863	83.67	-3.84E-01
878.164	83.7	-3.88E-01
878.466	83.73	-3.92E-01
878.765	83.76	-3.95E-01
879.05	83.79	-3.99E-01
879.361	83.82	-4.02E-01
879.656	83.85	-4.06E-01
879.957	83.88	-4.09E-01
880.257	83.91	-4.13E-01
880.552	83.94	-4.17E-01
880.864	83.97	-4.21E-01
881.149	84	-4.24E-01
881.446	84.03	-4.28E-01
881.748	84.06	-4.31E-01
882.053	84.09	-4.35E-01
882.355	84.12	-4.39E-01
882.653	84.15	-4.43E-01
882.95	84.18	-4.46E-01
883.25	84.21	-4.50E-01
883.561	84.24	-4.54E-01
883.855	84.27	-4.58E-01
884.152	84.3	-4.61E-01
884.45	84.33	-4.65E-01
884.748	84.36	-4.69E-01
885.054	84.39	-4.72E-01
885.347	84.42	-4.76E-01
885.653	84.45	-4.80E-01
885.946	84.48	-4.84E-01
886.247	84.51	-4.88E-01
886.536	84.54	-4.91E-01
886.836	84.57	-4.95E-01
887.131	84.6	-4.99E-01
887.434	84.63	-5.03E-01
887.74	84.66	-5.07E-01
888.037	84.69	-5.11E-01
888.34	84.72	-5.15E-01
888.637	84.75	-5.19E-01
888.929	84.78	-5.22E-01
889.231	84.81	-5.26E-01
889.531	84.84	-5.30E-01
889.83	84.87	-5.34E-01
890.135	84.9	-5.38E-01
890.437	84.93	-5.42E-01
890.736	84.96	-5.46E-01
891.038	84.99	-5.50E-01
891.341	85.02	-5.54E-01
891.624	85.05	-5.58E-01
891.928	85.08	-5.62E-01
892.231	85.11	-5.66E-01
892.536	85.14	-5.70E-01
892.829	85.17	-5.74E-01
893.123	85.2	-5.78E-01
893.428	85.23	-5.82E-01
893.727	85.26	-5.86E-01
894.025	85.29	-5.90E-01
894.318	85.32	-5.94E-01
894.62	85.35	-5.98E-01
894.923	85.38	-6.02E-01
895.227	85.41	-6.06E-01
895.52	85.44	-6.10E-01
895.824	85.47	-6.14E-01
896.127	85.5	-6.18E-01
896.424	85.53	-6.22E-01
896.713	85.56	-6.26E-01
897.016	85.59	-6.30E-01
897.318	85.62	-6.34E-01
897.622	85.65	-6.39E-01
897.92	85.68	-6.43E-01
898.217	85.71	-6.47E-01
898.52	85.74	-6.51E-01
898.805	85.77	-6.55E-01
899.105	85.8	-6.59E-01
899.415	85.83	-6.63E-01
899.711	85.86	-6.68E-01
900.012	85.89	-6.72E-01
900.307	85.92	-6.76E-01
900.608	85.95	-6.80E-01
900.906	85.98	-6.84E-01
901.208	86.01	-6.88E-01
901.504	86.04	-6.93E-01
901.805	86.07	-6.97E-01
902.103	86.1	-7.01E-01
902.405	86.13	-7.05E-01
902.705	86.16	-7.09E-01
903.007	86.19	-7.13E-01
903.312	86.22	-7.18E-01
903.61	86.25	-7.22E-01
903.9	86.28	-7.26E-01
904.205	86.31	-7.30E-01
904.505	86.34	-7.35E-01
904.799	86.37	-7.39E-01
905.103	86.4	-7.43E-01
905.402	86.43	-7.48E-01
905.7	86.46	-7.52E-01
905.986	86.49	-7.57E-01
906.298	86.52	-7.61E-01
906.594	86.55	-7.65E-01
906.903	86.58	-7.70E-01
907.195	86.61	-7.74E-01
907.498	86.64	-7.78E-01
907.801	86.67	-7.82E-01
908.099	86.7	-7.87E-01
908.398	86.73	-7.91E-01
908.699	86.76	-7.95E-01
908.99	86.79	-8.00E-01
909.289	86.82	-8.05E-01
909.591	86.85	-8.09E-01
909.889	86.88	-8.13E-01
910.189	86.91	-8.18E-01
910.494	86.94	-8.22E-01
910.792	86.97	-8.26E-01
911.082	87	-8.31E-01
911.391	87.03	-8.35E-01
911.681	87.06	-8.40E-01
911.978	87.09	-8.44E-01
912.292	87.12	-8.49E-01
912.592	87.15	-8.53E-01
912.894	87.18	-8.58E-01
913.17	87.21	-8.62E-01
913.481	87.24	-8.67E-01
913.789	87.27	-8.71E-01
914.08	87.3	-8.76E-01
914.378	87.33	-8.80E-01
914.681	87.36	-8.85E-01
914.977	87.39	-8.89E-01
915.289	87.42	-8.94E-01
915.59	87.45	-8.99E-01
915.885	87.48	-9.03E-01
916.166	87.51	-9.08E-01
916.474	87.54	-9.13E-01
916.775	87.57	-9.17E-01
917.074	87.6	-9.22E-01
917.374	87.63	-9.26E-01
917.674	87.66	-9.31E-01
917.979	87.69	-9.36E-01
918.271	87.72	-9.40E-01
918.571	87.75	-9.45E-01
918.869	87.78	-9.50E-01
919.175	87.81	-9.55E-01
919.47	87.84	-9.60E-01
919.774	87.87	-9.64E-01
920.074	87.9	-9.69E-01
920.376	87.93	-9.74E-01
920.672	87.96	-9.78E-01
920.977	87.99	-9.83E-01
921.262	88.02	-9.88E-01
921.562	88.05	-9.92E-01
921.868	88.08	-9.98E-01
922.167	88.11	-1.00E+00
922.463	88.14	-1.01E+00
922.76	88.17	-1.01E+00
923.062	88.2	-1.02E+00
923.35	88.23	-1.02E+00
923.651	88.26	-1.03E+00
923.961	88.29	-1.03E+00
924.251	88.32	-1.04E+00
924.551	88.35	-1.04E+00
924.854	88.38	-1.05E+00
925.157	88.41	-1.05E+00
925.45	88.44	-1.05E+00
925.748	88.47	-1.06E+00
926.05	88.5	-1.06E+00
926.347	88.53	-1.07E+00
926.649	88.56	-1.07E+00
926.951	88.59	-1.08E+00
927.248	88.62	-1.08E+00
927.554	88.65	-1.09E+00
927.85	88.68	-1.09E+00
928.143	88.71	-1.10E+00
928.445	88.74	-1.10E+00
928.742	88.77	-1.11E+00
929.043	88.8	-1.11E+00
929.338	88.83	-1.12E+00
929.644	88.86	-1.12E+00
929.939	88.89	-1.13E+00
930.253	88.92	-1.13E+00
930.537	88.95	-1.14E+00
930.84	88.98	-1.14E+00
931.131	89.01	-1.15E+00
931.438	89.04	-1.15E+00
931.736	89.07	-1.16E+00
932.033	89.1	-1.16E+00
932.332	89.13	-1.17E+00
932.638	89.16	-1.17E+00
932.927	89.19	-1.18E+00
933.222	89.22	-1.18E+00
933.52	89.25	-1.19E+00
933.834	89.28	-1.19E+00
934.133	89.31	-1.20E+00
934.429	89.34	-1.20E+00
934.727	89.37	-1.21E+00
935.03	89.4	-1.21E+00
935.334	89.43	-1.22E+00
935.617	89.46	-1.22E+00
935.913	89.49	-1.22E+00
936.223	89.52	-1.23E+00
936.522	89.55	-1.23E+00
936.825	89.58	-1.24E+00
937.124	89.61	-1.24E+00
937.425	89.64	-1.25E+00
937.723	89.67	-1.25E+00
938.013	89.7	-1.26E+00
938.317	89.73	-1.26E+00
938.61	89.76	-1.27E+00
938.905	89.79	-1.27E+00
939.217	89.82	-1.28E+00
939.516	89.85	-1.28E+00
939.816	89.88	-1.29E+00
940.118	89.91	-1.29E+00
940.405	89.94	-1.30E+00
940.706	89.97	-1.30E+00
941.002	90	-1.31E+00
941.306	90.03	-1.31E+00
941.609	90.06	-1.32E+00
941.912	90.09	-1.32E+00
942.209	90.12	-1.33E+00
942.499	90.15	-1.33E+00
942.789	90.18	-1.34E+00
943.097	90.21	-1.34E+00
943.401	90.24	-1.35E+00
943.698	90.27	-1.35E+00
943.993	90.3	-1.36E+00
944.298	90.33	-1.36E+00
944.602	90.36	-1.37E+00
944.889	90.39	-1.38E+00
945.191	90.42	-1.38E+00
945.484	90.45	-1.39E+00
945.79	90.48	-1.39E+00
946.096	90.51	-1.40E+00
946.389	90.54	-1.40E+00
946.689	90.57	-1.41E+00
946.991	90.6	-1.41E+00
947.294	90.63	-1.42E+00
947.581	90.66	-1.42E+00
947.877	90.69	-1.43E+00
948.176	90.72	-1.43E+00
948.475	90.75	-1.44E+00
948.784	90.78	-1.44E+00
949.084	90.81	-1.45E+00
949.386	90.84	-1.45E+00
949.685	90.87	-1.46E+00
949.973	90.9	-1.46E+00
950.276	90.93	-1.47E+00
950.574	90.96	-1.47E+00
950.871	90.99	-1.48E+00
951.176	91.02	-1.48E+00
951.483	91.05	-1.49E+00
951.782	91.08	-1.49E+00
952.066	91.11	-1.50E+00
952.368	91.14	-1.50E+00
952.666	91.17	-1.51E+00
952.973	91.2	-1.51E+00
953.271	91.23	-1.52E+00
953.572	91.26	-1.53E+00
953.867	91.29	-1.53E+00
954.177	91.32	-1.54E+00
954.467	91.35	-1.54E+00
954.757	91.38	-1.55E+00
955.071	91.41	-1.55E+00
955.365	91.44	-1.56E+00
955.658	91.47	-1.56E+00
955.959	91.5	-1.57E+00
956.261	91.53	-1.57E+00
956.562	91.56	-1.58E+00
956.866	91.59	-1.58E+00
957.159	91.62	-1.59E+00
957.452	91.65	-1.59E+00
957.748	91.68	-1.60E+00
958.056	91.71	-1.61E+00
958.358	91.74	-1.61E+00
958.662	91.77	-1.62E+00
958.965	91.8	-1.62E+00
959.254	91.83	-1.63E+00
959.553	91.86	-1.63E+00
959.85	91.89	-1.64E+00
960.155	91.92	-1.64E+00
960.456	91.95	-1.65E+00
960.754	91.98	-1.65E+00
961.054	92.01	-1.66E+00
961.357	92.04	-1.67E+00
961.653	92.07	-1.67E+00
961.949	92.1	-1.68E+00
962.249	92.13	-1.68E+00
962.546	92.16	-1.69E+00
962.848	92.19	-1.69E+00
963.146	92.22	-1.70E+00
963.448	92.25	-1.70E+00
963.746	92.28	-1.71E+00
964.054	92.31	-1.71E+00
964.339	92.34	-1.72E+00
964.639	92.37	-1.73E+00
964.94	92.4	-1.73E+00
965.244	92.43	-1.74E+00
965.546	92.46	-1.74E+00
965.847	92.49	-1.75E+00
966.143	92.52	-1.75E+00
966.427	92.55	-1.76E+00
966.737	92.58	-1.77E+00
967.036	92.61	-1.77E+00
967.341	92.64	-1.78E+00
967.638	92.67	-1.78E+00
967.938	92.7	-1.79E+00
968.236	92.73	-1.79E+00
968.534	92.76	-1.80E+00
968.835	92.79	-1.81E+00
969.134	92.82	-1.81E+00
969.419	92.85	-1.82E+00
969.722	92.88	-1.82E+00
970.027	92.91	-1.83E+00
970.331	92.94	-1.83E+00
970.632	92.97	-1.84E+00
970.928	93	-1.85E+00
971.233	93.03	-1.85E+00
971.518	93.06	-1.86E+00
971.818	93.09	-1.86E+00
972.114	93.12	-1.87E+00
972.42	93.15	-1.88E+00
972.718	93.18	-1.88E+00
973.023	93.21	-1.89E+00
973.325	93.24	-1.89E+00
973.614	93.27	-1.90E+00
973.903	93.3	-1.90E+00
974.22	93.33	-1.91E+00
974.513	93.36	-1.92E+00
974.822	93.39	-1.92E+00
975.117	93.42	-1.93E+00
975.422	93.45	-1.93E+00
975.717	93.48	-1.94E+00
976.023	93.51	-1.95E+00
976.321	93.54	-1.95E+00
976.616	93.57	-1.96E+00
976.92	93.6	-1.96E+00
977.221	93.63	-1.97E+00
977.511	93.66	-1.98E+00
977.815	93.69	-1.98E+00
978.122	93.72	-1.99E+00
978.421	93.75	-1.99E+00
978.716	93.78	-2.00E+00
979.006	93.81	-2.00E+00
979.31	93.84	-2.01E+00
979.614	93.87	-2.02E+00
979.907	93.9	-2.02E+00
980.215	93.93	-2.03E+00
980.524	93.96	-2.03E+00
980.808	93.99	-2.04E+00
981.104	94.02	-2.05E+00
981.402	94.05	-2.05E+00
981.708	94.08	-2.06E+00
982.01	94.11	-2.07E+00
982.312	94.14	-2.07E+00
982.608	94.17	-2.08E+00
982.913	94.2	-2.08E+00
983.213	94.23	-2.09E+00
983.508	94.26	-2.10E+00
983.805	94.29	-2.10E+00
984.102	94.32	-2.11E+00
984.405	94.35	-2.11E+00
984.706	94.38	-2.12E+00
985.005	94.41	-2.13E+00
985.31	94.44	-2.13E+00
985.616	94.47	-2.14E+00
985.906	94.5	-2.14E+00
986.208	94.53	-2.15E+00
986.507	94.56	-2.16E+00
986.808	94.59	-2.16E+00
987.108	94.62	-2.17E+00
987.407	94.65	-2.18E+00
987.714	94.68	-2.18E+00
988.006	94.71	-2.19E+00
988.291	94.74	-2.19E+00
988.595	94.77	-2.20E+00
988.904	94.8	-2.21E+00
989.204	94.83	-2.21E+00
989.502	94.86	-2.22E+00
989.799	94.89	-2.23E+00
990.101	94.92	-2.23E+00
990.401	94.95	-2.24E+00
990.71	94.98	-2.25E+00
991.004	95.01	-2.25E+00
991.301	95.04	-2.26E+00
991.595	95.07	-2.26E+00
991.905	95.1	-2.27E+00
992.213	95.13	-2.28E+00
992.503	95.16	-2.28E+00
992.8	95.19	-2.29E+00
993.102	95.22	-2.30E+00
993.392	95.25	-2.30E+00
993.695	95.28	-2.31E+00
993.998	95.31	-2.32E+00
994.307	95.34	-2.32E+00
994.608	95.37	-2.33E+00
994.899	95.4	-2.34E+00
995.214	95.43	-2.34E+00
995.496	95.46	-2.35E+00
995.798	95.49	-2.35E+00
996.097	95.52	-2.36E+00
996.398	95.55	-2.37E+00
996.704	95.58	-2.37E+00
997.005	95.61	-2.38E+00
997.306	95.64	-2.39E+00
997.607	95.67	-2.39E+00
997.905	95.7	-2.40E+00
998.204	95.73	-2.41E+00
998.493	95.76	-2.41E+00
998.8	95.79	-2.42E+00
999.094	95.82	-2.43E+00
999.41	95.85	-2.43E+00
999.697	95.88	-2.44E+00
1000	95.91	-2.45E+00
1000.3	95.94	-2.45E+00
1000.59	95.97	-2.46E+00
1000.888	96	-2.47E+00
1001.19	96.03	-2.47E+00
1001.5	96.06	-2.48E+00
1001.8	96.09	-2.49E+00
1002.11	96.12	-2.49E+00
1002.4	96.15	-2.50E+00
1002.69	96.18	-2.51E+00
1002.99	96.21	-2.51E+00
1003.297	96.24	-2.52E+00
1003.6	96.27	-2.53E+00
1003.9	96.3	-2.53E+00
1004.19	96.33	-2.54E+00
1004.5	96.36	-2.55E+00
1004.802	96.39	-2.55E+00
1005.09	96.42	-2.56E+00
1005.4	96.45	-2.57E+00
1005.69	96.48	-2.57E+00
1005.99	96.51	-2.58E+00
1006.29	96.54	-2.59E+00
1006.59	96.57	-2.59E+00
1006.89	96.6	-2.60E+00
1007.2	96.63	-2.61E+00
1007.5	96.66	-2.61E+00
1007.78	96.69	-2.62E+00
1008.08	96.72	-2.63E+00
1008.39	96.75	-2.63E+00
1008.68	96.78	-2.64E+00
1009	96.81	-2.65E+00
1009.29	96.84	-2.65E+00
1009.6	96.87	-2.66E+00
1009.89	96.9	-2.67E+00
1010.19	96.93	-2.67E+00
1010.49	96.96	-2.68E+00
1010.79	96.99	-2.69E+00
1011.08	97.02	-2.70E+00
1011.39	97.05	-2.70E+00
1011.68	97.08	-2.71E+00
1011.99	97.11	-2.72E+00
1012.29	97.14	-2.72E+00
1012.6	97.17	-2.73E+00
1012.88	97.2	-2.74E+00
1013.19	97.23	-2.74E+00
1013.48	97.26	-2.75E+00
1013.78	97.29	-2.76E+00
1014.08	97.32	-2.77E+00
1014.38	97.35	-2.77E+00
1014.69	97.38	-2.78E+00
1014.974	97.41	-2.79E+00
1015.27	97.44	-2.79E+00
1015.58	97.47	-2.80E+00
1015.88	97.5	-2.81E+00
1016.18	97.53	-2.82E+00
1016.48	97.56	-2.82E+00
1016.78	97.59	-2.83E+00
1017.07	97.62	-2.84E+00
1017.37	97.65	-2.85E+00
1017.67	97.68	-2.85E+00
1017.98	97.71	-2.86E+00
1018.28	97.74	-2.87E+00
1018.57	97.77	-2.87E+00
1018.87	97.8	-2.88E+00
1019.18	97.83	-2.89E+00
1019.48	97.86	-2.89E+00
1019.77	97.89	-2.90E+00
1020.073	97.92	-2.91E+00
1020.367	97.95	-2.92E+00
1020.67	97.98	-2.92E+00
1020.97	98.01	-2.93E+00
1021.27	98.04	-2.94E+00
1021.57	98.07	-2.95E+00
1021.88	98.1	-2.95E+00
1022.16	98.13	-2.96E+00
1022.46	98.16	-2.97E+00
1022.77	98.19	-2.97E+00
1023.065	98.22	-2.98E+00
1023.37	98.25	-2.99E+00
1023.67	98.28	-3.00E+00
1023.966	98.31	-3.00E+00
1024.26	98.34	-3.01E+00
1024.57	98.37	-3.02E+00
1024.86	98.4	-3.03E+00
1025.16	98.43	-3.03E+00
1025.46	98.46	-3.04E+00
1025.771	98.49	-3.05E+00
1026.06	98.52	-3.05E+00
1026.35	98.55	-3.06E+00
1026.66	98.58	-3.07E+00
1026.96	98.61	-3.08E+00
1027.26	98.64	-3.08E+00
1027.55	98.67	-3.09E+00
1027.86	98.7	-3.10E+00
1028.16	98.73	-3.11E+00
1028.46	98.76	-3.11E+00
1028.76	98.79	-3.12E+00
1029.07	98.82	-3.13E+00
1029.34	98.85	-3.14E+00
1029.651	98.88	-3.14E+00
1029.95	98.91	-3.15E+00
1030.26	98.94	-3.16E+00
1030.56	98.97	-3.17E+00
1030.85	99	-3.17E+00
1031.15	99.03	-3.18E+00
1031.44	99.06	-3.19E+00
1031.74	99.09	-3.19E+00
1032.05	99.12	-3.20E+00
1032.34	99.15	-3.21E+00
1032.65	99.18	-3.22E+00
1032.95	99.21	-3.23E+00
1033.25	99.24	-3.23E+00
1033.54	99.27	-3.24E+00
1033.84	99.3	-3.25E+00
1034.13	99.33	-3.26E+00
1034.44	99.36	-3.26E+00
1034.74	99.39	-3.27E+00
1035.04	99.42	-3.28E+00
1035.35	99.45	-3.28E+00
1035.63	99.48	-3.29E+00
1035.94	99.51	-3.30E+00
1036.24	99.54	-3.31E+00
1036.54	99.57	-3.32E+00
1036.84	99.6	-3.32E+00
1037.14	99.63	-3.33E+00
1037.44	99.66	-3.34E+00
1037.74	99.69	-3.35E+00
1038.04	99.72	-3.36E+00
1038.34	99.75	-3.36E+00
1038.625	99.78	-3.37E+00
1038.93	99.81	-3.38E+00
1039.23	99.84	-3.39E+00
1039.53	99.87	-3.39E+00
1039.83	99.9	-3.40E+00
1040.13	99.93	-3.41E+00
1040.44	99.96	-3.42E+00
1040.724	99.99	-3.43E+00
1041.02	100.02	-3.43E+00
1041.32	100.05	-3.44E+00
1041.62	100.08	-3.45E+00
1041.927	100.11	-3.46E+00
1042.229	100.14	-3.47E+00
1042.52	100.17	-3.47E+00
1042.82	100.2	-3.48E+00
1043.11	100.23	-3.49E+00
1043.41	100.26	-3.50E+00
1043.72	100.29	-3.51E+00
1044.02	100.32	-3.52E+00
1044.323	100.35	-3.52E+00
1044.62	100.38	-3.53E+00
1044.92	100.41	-3.54E+00
1045.22	100.44	-3.55E+00
1045.52	100.47	-3.55E+00
1045.82	100.5	-3.56E+00
1046.11	100.53	-3.57E+00
1046.42	100.56	-3.58E+00
1046.72	100.59	-3.59E+00
1047.02	100.62	-3.59E+00
1047.32	100.65	-3.60E+00
1047.62	100.68	-3.61E+00
1047.91	100.71	-3.62E+00
1048.21	100.74	-3.63E+00
1048.51	100.77	-3.64E+00
1048.81	100.8	-3.64E+00
1049.12	100.83	-3.65E+00
1049.41	100.86	-3.66E+00
1049.71	100.89	-3.67E+00
1050	100.92	-3.68E+00
1050.31	100.95	-3.68E+00
1050.62	100.98	-3.69E+00
1050.9	101.01	-3.70E+00
1051.203	101.04	-3.71E+00
1051.51	101.07	-3.72E+00
1051.81	101.1	-3.73E+00
1052.1	101.13	-3.74E+00
1052.4	101.16	-3.74E+00
1052.698	101.19	-3.75E+00
1052.99	101.22	-3.76E+00
1053.297	101.25	-3.77E+00
1053.599	101.28	-3.78E+00
1053.91	101.31	-3.79E+00
1054.2	101.34	-3.79E+00
1054.49	101.37	-3.80E+00
1054.8	101.4	-3.81E+00
1055.099	101.43	-3.82E+00
1055.4	101.46	-3.83E+00
1055.7	101.49	-3.84E+00
1056.01	101.52	-3.85E+00
1056.3	101.55	-3.86E+00
1056.6	101.58	-3.86E+00
1056.9	101.61	-3.87E+00
1057.2	101.64	-3.88E+00
1057.51	101.67	-3.89E+00
1057.797	101.7	-3.90E+00
1058.09	101.73	-3.91E+00
1058.4	101.76	-3.92E+00
1058.7	101.79	-3.92E+00
1059	101.82	-3.93E+00
1059.28	101.85	-3.94E+00
1059.59	101.88	-3.95E+00
1059.9	101.91	-3.96E+00
1060.19	101.94	-3.97E+00
1060.49	101.97	-3.98E+00
1060.79	102	-3.98E+00
1061.09	102.03	-3.99E+00
1061.38	102.06	-4.00E+00
1061.68	102.09	-4.01E+00
1061.98	102.12	-4.02E+00
1062.28	102.15	-4.03E+00
1062.58	102.18	-4.04E+00
1062.88	102.21	-4.05E+00
1063.18	102.24	-4.05E+00
1063.48	102.27	-4.06E+00
1063.78	102.3	-4.07E+00
1064.08	102.33	-4.08E+00
1064.38	102.36	-4.09E+00
1064.68	102.39	-4.10E+00
1064.97	102.42	-4.11E+00
1065.27	102.45	-4.12E+00
1065.58	102.48	-4.13E+00
1065.88	102.51	-4.13E+00
1066.172	102.54	-4.14E+00
1066.47	102.57	-4.15E+00
1066.77	102.6	-4.16E+00
1067.07	102.63	-4.17E+00
1067.37	102.66	-4.18E+00
1067.67	102.69	-4.19E+00
1067.97	102.72	-4.20E+00
1068.276	102.75	-4.21E+00
1068.56	102.78	-4.21E+00
1068.86	102.81	-4.22E+00
1069.16	102.84	-4.23E+00
1069.47	102.87	-4.24E+00
1069.771	102.9	-4.25E+00
1070.08	102.93	-4.26E+00
1070.37	102.96	-4.27E+00
1070.65	102.99	-4.28E+00
1070.953	103.02	-4.29E+00
1071.26	103.05	-4.29E+00
1071.56	103.08	-4.30E+00
1071.87	103.11	-4.31E+00
1072.17	103.14	-4.32E+00
1072.46	103.17	-4.33E+00
1072.77	103.2	-4.34E+00
1073.052	103.23	-4.35E+00
1073.36	103.26	-4.36E+00
1073.66	103.29	-4.37E+00
1073.95	103.32	-4.38E+00
1074.27	103.35	-4.39E+00
1074.57	103.38	-4.39E+00
1074.87	103.41	-4.40E+00
1075.17	103.44	-4.41E+00
1075.46	103.47	-4.42E+00
1075.75	103.5	-4.43E+00
1076.047	103.53	-4.44E+00
1076.35	103.56	-4.45E+00
1076.65	103.59	-4.46E+00
1076.96	103.62	-4.47E+00
1077.25	103.65	-4.48E+00
1077.56	103.68	-4.49E+00
1077.85	103.71	-4.50E+00
1078.15	103.74	-4.51E+00
1078.448	103.77	-4.51E+00
1078.75	103.8	-4.52E+00
1079.05	103.83	-4.53E+00
1079.34	103.86	-4.54E+00
1079.65	103.89	-4.55E+00
1079.94	103.92	-4.56E+00
1080.24	103.95	-4.57E+00
1080.54	103.98	-4.58E+00
1080.84	104.01	-4.59E+00
1081.15	104.04	-4.60E+00
1081.45	104.07	-4.61E+00
1081.75	104.1	-4.62E+00
1082.04	104.13	-4.62E+00
1082.34	104.16	-4.64E+00
1082.65	104.19	-4.64E+00
1082.94	104.22	-4.66E+00
1083.25	104.25	-4.66E+00
1083.55	104.28	-4.67E+00
1083.854	104.31	-4.68E+00
1084.15	104.34	-4.69E+00
1084.46	104.37	-4.70E+00
1084.75	104.4	-4.71E+00
1085.04	104.43	-4.72E+00
1085.34	104.46	-4.73E+00
1085.64	104.49	-4.74E+00
1085.948	104.52	-4.75E+00
1086.24	104.55	-4.76E+00
1086.54	104.58	-4.77E+00
1086.86	104.61	-4.78E+00
1087.151	104.64	-4.79E+00
1087.44	104.67	-4.80E+00
1087.75	104.7	-4.81E+00
1088.04	104.73	-4.82E+00
1088.33	104.76	-4.83E+00
1088.65	104.79	-4.84E+00
1088.95	104.82	-4.84E+00
1089.229	104.85	-4.85E+00
1089.54	104.88	-4.86E+00
1089.84	104.91	-4.87E+00
1090.14	104.94	-4.88E+00
1090.44	104.97	-4.89E+00
1090.73	105	-4.90E+00
1091.05	105.03	-4.91E+00
1091.35	105.06	-4.92E+00
1091.63	105.09	-4.93E+00
1091.927	105.12	-4.94E+00
1092.24	105.15	-4.95E+00
1092.53	105.18	-4.96E+00
1092.83	105.21	-4.97E+00
1093.14	105.24	-4.98E+00
1093.44	105.27	-4.99E+00
1093.74	105.3	-5.00E+00
1094.026	105.33	-5.01E+00
1094.34	105.36	-5.02E+00
1094.64	105.39	-5.03E+00
1094.93	105.42	-5.04E+00
1095.23	105.45	-5.05E+00
1095.54	105.48	-5.06E+00
1095.84	105.51	-5.07E+00
1096.13	105.54	-5.08E+00
1096.44	105.57	-5.09E+00
1096.73	105.6	-5.10E+00
1097.03	105.63	-5.11E+00
1097.34	105.66	-5.12E+00
1097.63	105.69	-5.13E+00
1097.93	105.72	-5.14E+00
1098.24	105.75	-5.15E+00
1098.53	105.78	-5.16E+00
1098.82	105.81	-5.17E+00
1099.13	105.84	-5.18E+00
1099.43	105.87	-5.19E+00
1099.729	105.9	-5.20E+00
1100.03	105.93	-5.21E+00
1100.33	105.96	-5.22E+00
1100.63	105.99	-5.23E+00
1100.93	106.02	-5.24E+00
1101.224	106.05	-5.25E+00
1101.53	106.08	-5.26E+00
1101.83	106.11	-5.27E+00
1102.13	106.14	-5.28E+00
1102.43	106.17	-5.29E+00
1102.73	106.2	-5.30E+00
1103.02	106.23	-5.31E+00
1103.323	106.26	-5.32E+00
1103.63	106.29	-5.33E+00
1103.93	106.32	-5.34E+00
1104.22	106.35	-5.35E+00
1104.53	106.38	-5.37E+00
1104.83	106.41	-5.37E+00
1105.125	106.44	-5.38E+00
1105.42	106.47	-5.40E+00
1105.73	106.5	-5.41E+00
1106.02	106.53	-5.42E+00
1106.32	106.56	-5.43E+00
1106.62	106.59	-5.44E+00
1106.93	106.62	-5.45E+00
1107.229	106.65	-5.46E+00
1107.52	106.68	-5.47E+00
1107.82	106.71	-5.48E+00
1108.11	106.74	-5.49E+00
1108.42	106.77	-5.50E+00
1108.72	106.8	-5.51E+00
1109.01	106.83	-5.52E+00
1109.31	106.86	-5.53E+00
1109.62	106.89	-5.54E+00
1109.92	106.92	-5.55E+00
1110.2	106.95	-5.56E+00
1110.49	106.98	-5.57E+00
1110.8	107.01	-5.58E+00
1111.11	107.04	-5.59E+00
1111.41	107.07	-5.61E+00
1111.71	107.1	-5.61E+00
1112.005	107.13	-5.63E+00
1112.31	107.16	-5.64E+00
1112.599	107.19	-5.65E+00
1112.91	107.22	-5.66E+00
1113.21	107.25	-5.67E+00
1113.5	107.28	-5.68E+00
1113.81	107.31	-5.69E+00
1114.125	107.34	-5.70E+00
1114.4	107.37	-5.71E+00
1114.71	107.4	-5.72E+00
1115.005	107.43	-5.73E+00
1115.31	107.46	-5.74E+00
1115.61	107.49	-5.75E+00
1115.9	107.52	-5.77E+00
1116.21	107.55	-5.77E+00
1116.51	107.58	-5.78E+00
1116.82	107.61	-5.80E+00
1117.12	107.64	-5.81E+00
1117.4	107.67	-5.82E+00
1117.7	107.7	-5.83E+00
1118.01	107.73	-5.84E+00
1118.31	107.76	-5.85E+00
1118.61	107.79	-5.86E+00
1118.91	107.82	-5.87E+00
1119.21	107.85	-5.88E+00
1119.5	107.88	-5.89E+00
1119.8	107.91	-5.90E+00
1120.1	107.94	-5.91E+00
1120.4	107.97	-5.92E+00
1120.71	108	-5.93E+00
1121.01	108.03	-5.94E+00
1121.31	108.06	-5.96E+00
1121.6	108.09	-5.97E+00
1121.89	108.12	-5.98E+00
1122.19	108.15	-5.99E+00
1122.5	108.18	-6.00E+00
1122.8	108.21	-6.01E+00
1123.1	108.24	-6.02E+00
1123.4	108.27	-6.03E+00
1123.69	108.3	-6.04E+00
1123.99	108.33	-6.05E+00
1124.3	108.36	-6.06E+00
1124.59	108.39	-6.07E+00
1124.9	108.42	-6.09E+00
1125.19	108.45	-6.10E+00
1125.5	108.48	-6.11E+00
1125.78	108.51	-6.12E+00
1126.09	108.54	-6.13E+00
1126.4	108.57	-6.14E+00
1126.69	108.6	-6.15E+00
1126.99	108.63	-6.16E+00
1127.29	108.66	-6.17E+00
1127.599	108.69	-6.18E+00
1127.9	108.72	-6.19E+00
1128.19	108.75	-6.20E+00
1128.5	108.78	-6.21E+00
1128.78	108.81	-6.22E+00
1129.08	108.84	-6.24E+00
1129.39	108.87	-6.25E+00
1129.69	108.9	-6.25E+00
1129.99	108.93	-6.27E+00
1130.28	108.96	-6.28E+00
1130.59	108.99	-6.29E+00
1130.88	109.02	-6.30E+00
1131.18	109.05	-6.31E+00
1131.49	109.08	-6.32E+00
1131.78	109.11	-6.33E+00
1132.09	109.14	-6.34E+00
1132.38	109.17	-6.35E+00
1132.69	109.2	-6.36E+00
1132.98	109.23	-6.37E+00
1133.27	109.26	-6.38E+00
1133.58	109.29	-6.40E+00
1133.88	109.32	-6.40E+00
1134.19	109.35	-6.42E+00
1134.49	109.38	-6.43E+00
1134.79	109.41	-6.44E+00
1135.08	109.44	-6.45E+00
1135.39	109.47	-6.46E+00
1135.68	109.5	-6.47E+00
1135.98	109.53	-6.48E+00
1136.28	109.56	-6.49E+00
1136.59	109.59	-6.50E+00
1136.89	109.62	-6.51E+00
1137.18	109.65	-6.52E+00
1137.474	109.68	-6.54E+00
1137.78	109.71	-6.55E+00
1138.078	109.74	-6.56E+00
1138.38	109.77	-6.57E+00
1138.69	109.8	-6.58E+00
1138.98	109.83	-6.59E+00
1139.28	109.86	-6.60E+00
1139.58	109.89	-6.61E+00
1139.87	109.92	-6.62E+00
1140.18	109.95	-6.63E+00
1140.47	109.98	-6.64E+00
1140.77	110.01	-6.65E+00
1141.07	110.04	-6.67E+00
1141.38	110.07	-6.68E+00
1141.68	110.1	-6.69E+00
1141.98	110.13	-6.70E+00
1142.27	110.16	-6.71E+00
1142.573	110.19	-6.72E+00
1142.87	110.22	-6.73E+00
1143.16	110.25	-6.74E+00
1143.47	110.28	-6.75E+00
1143.77	110.31	-6.76E+00
1144.07	110.34	-6.78E+00
1144.36	110.37	-6.79E+00
1144.66	110.4	-6.80E+00
1144.97	110.43	-6.81E+00
1145.26	110.46	-6.82E+00
1145.56	110.49	-6.83E+00
1145.86	110.52	-6.84E+00
1146.16	110.55	-6.85E+00
1146.45	110.58	-6.86E+00
1146.75	110.61	-6.87E+00
1147.06	110.64	-6.88E+00
1147.36	110.67	-6.89E+00
1147.66	110.7	-6.90E+00
1147.97	110.73	-6.92E+00
1148.27	110.76	-6.93E+00
1148.56	110.79	-6.94E+00
1148.86	110.82	-6.94E+00
1149.16	110.85	-6.96E+00
1149.46	110.88	-6.97E+00
1149.755	110.91	-6.97E+00
1150.06	110.94	-6.99E+00
1150.36	110.97	-6.99E+00
1150.65	111	-7.01E+00
1150.95	111.03	-7.02E+00
1151.26	111.06	-7.03E+00
1151.56	111.09	-7.04E+00
1151.85	111.12	-7.05E+00
1152.16	111.15	-7.06E+00
1152.45	111.18	-7.07E+00
1152.75	111.21	-7.08E+00
1153.06	111.24	-7.09E+00
1153.34	111.27	-7.10E+00
1153.64	111.3	-7.11E+00
1153.948	111.33	-7.12E+00
1154.255	111.36	-7.13E+00
1154.56	111.39	-7.14E+00
1154.85	111.42	-7.15E+00
1155.16	111.45	-7.16E+00
1155.46	111.48	-7.17E+00
1155.75	111.51	-7.18E+00
1156.04	111.54	-7.19E+00
1156.35	111.57	-7.20E+00
1156.65	111.6	-7.21E+00
1156.94	111.63	-7.22E+00
1157.25	111.66	-7.23E+00
1157.56	111.69	-7.25E+00
1157.85	111.72	-7.25E+00
1158.15	111.75	-7.27E+00
1158.44	111.78	-7.27E+00
1158.75	111.81	-7.29E+00
1159.04	111.84	-7.30E+00
1159.34	111.87	-7.31E+00
1159.65	111.9	-7.32E+00
1159.94	111.93	-7.33E+00
1160.23	111.96	-7.34E+00
1160.54	111.99	-7.35E+00
1160.85	112.02	-7.35E+00
1161.15	112.05	-7.37E+00
1161.43	112.08	-7.37E+00
1161.75	112.11	-7.39E+00
1162.04	112.14	-7.40E+00
1162.34	112.17	-7.41E+00
1162.64	112.2	-7.42E+00
1162.94	112.23	-7.43E+00
1163.24	112.26	-7.44E+00
1163.55	112.29	-7.45E+00
1163.83	112.32	-7.46E+00
1164.125	112.35	-7.47E+00
1164.43	112.38	-7.47E+00
1164.74	112.41	-7.49E+00
1165.03	112.44	-7.50E+00
1165.33	112.47	-7.50E+00
1165.64	112.5	-7.51E+00
1165.94	112.53	-7.52E+00
1166.23	112.56	-7.54E+00
1166.54	112.59	-7.55E+00
1166.83	112.62	-7.56E+00
1167.13	112.65	-7.56E+00
1167.43	112.68	-7.57E+00
1167.729	112.71	-7.59E+00
1168.03	112.74	-7.60E+00
1168.33	112.77	-7.60E+00
1168.64	112.8	-7.61E+00
1168.93	112.83	-7.62E+00
1169.23	112.86	-7.63E+00
1169.53	112.89	-7.65E+00
1169.83	112.92	-7.65E+00
1170.12	112.95	-7.66E+00
1170.43	112.98	-7.67E+00
1170.73	113.01	-7.68E+00
1171.03	113.04	-7.69E+00
1171.32	113.07	-7.70E+00
1171.62	113.1	-7.71E+00
1171.93	113.13	-7.72E+00
1172.23	113.16	-7.73E+00
1172.53	113.19	-7.74E+00
1172.83	113.22	-7.75E+00
1173.13	113.25	-7.76E+00
1173.42	113.28	-7.77E+00
1173.72	113.31	-7.78E+00
1174.02	113.34	-7.79E+00
1174.32	113.37	-7.80E+00
1174.63	113.4	-7.81E+00
1174.93	113.43	-7.82E+00
1175.23	113.46	-7.83E+00
1175.52	113.49	-7.83E+00
1175.82	113.52	-7.85E+00
1176.125	113.55	-7.85E+00
1176.42	113.58	-7.86E+00
1176.71	113.61	-7.87E+00
1177.03	113.64	-7.88E+00
1177.33	113.67	-7.89E+00
1177.61	113.7	-7.90E+00
1177.91	113.73	-7.91E+00
1178.21	113.76	-7.92E+00
1178.51	113.79	-7.93E+00
1178.82	113.82	-7.94E+00
1179.11	113.85	-7.95E+00
1179.42	113.88	-7.95E+00
1179.73	113.91	-7.96E+00
1180.01	113.94	-7.97E+00
1180.32	113.97	-7.98E+00
1180.61	114	-7.99E+00
1180.91	114.03	-8.00E+00
1181.21	114.06	-8.01E+00
1181.52	114.09	-8.02E+00
1181.81	114.12	-8.03E+00
1182.12	114.15	-8.03E+00
1182.422	114.18	-8.05E+00
1182.71	114.21	-8.06E+00
1183	114.24	-8.06E+00
1183.31	114.27	-8.07E+00
1183.61	114.3	-8.08E+00
1183.92	114.33	-8.09E+00
1184.21	114.36	-8.09E+00
1184.52	114.39	-8.10E+00
1184.802	114.42	-8.11E+00
1185.11	114.45	-8.12E+00
1185.42	114.48	-8.13E+00
1185.71	114.51	-8.14E+00
1186.01	114.54	-8.14E+00
1186.31	114.57	-8.15E+00
1186.62	114.6	-8.16E+00
1186.9	114.63	-8.18E+00
1187.21	114.66	-8.18E+00
1187.52	114.69	-8.19E+00
1187.82	114.72	-8.20E+00
1188.11	114.75	-8.21E+00
1188.41	114.78	-8.22E+00
1188.71	114.81	-8.23E+00
1188.99	114.84	-8.23E+00
1189.3	114.87	-8.24E+00
1189.61	114.9	-8.25E+00
1189.9	114.93	-8.26E+00
1190.21	114.96	-8.26E+00
1190.5	114.99	-8.27E+00
1190.81	115.02	-8.28E+00
1191.099	115.05	-8.29E+00
1191.4	115.08	-8.30E+00
1191.71	115.11	-8.30E+00
1192	115.14	-8.32E+00
1192.31	115.17	-8.32E+00
1192.61	115.2	-8.33E+00
1192.91	115.23	-8.34E+00
1193.19	115.26	-8.35E+00
1193.49	115.29	-8.36E+00
1193.8	115.32	-8.36E+00
1194.11	115.35	-8.37E+00
1194.41	115.38	-8.37E+00
1194.7	115.41	-8.39E+00
1195	115.44	-8.40E+00
1195.3	115.47	-8.40E+00
1195.59	115.5	-8.41E+00
1195.9	115.53	-8.42E+00
1196.19	115.56	-8.43E+00
1196.5	115.59	-8.43E+00
1196.81	115.62	-8.44E+00
1197.11	115.65	-8.45E+00
1197.41	115.68	-8.46E+00
1197.71	115.71	-8.46E+00
1198.01	115.74	-8.47E+00
1198.3	115.77	-8.48E+00
1198.59	115.8	-8.49E+00
1198.89	115.83	-8.50E+00
1199.19	115.86	-8.50E+00
1199.5	115.89	-8.51E+00
1199.81	115.92	-8.52E+00
1200.1	115.95	-8.53E+00
1200.4	115.98	-8.53E+00
1200.69	116.01	-8.54E+00
1201	116.04	-8.55E+00
1201.302	116.07	-8.56E+00
1201.6	116.1	-8.56E+00
1201.901	116.13	-8.57E+00
1202.2	116.16	-8.58E+00
1202.51	116.19	-8.59E+00
1202.79	116.22	-8.59E+00
1203.09	116.25	-8.60E+00
1203.39	116.28	-8.61E+00
1203.7	116.31	-8.61E+00
1203.99	116.34	-8.62E+00
1204.3	116.37	-8.63E+00
1204.6	116.4	-8.64E+00
1204.89	116.43	-8.64E+00
1205.19	116.46	-8.65E+00
1205.49	116.49	-8.66E+00
1205.79	116.52	-8.66E+00
1206.09	116.55	-8.67E+00
1206.39	116.58	-8.68E+00
1206.7	116.61	-8.68E+00
1206.98	116.64	-8.69E+00
1207.29	116.67	-8.69E+00
1207.58	116.7	-8.71E+00
1207.89	116.73	-8.71E+00
1208.2	116.76	-8.72E+00
1208.49	116.79	-8.73E+00
1208.79	116.82	-8.74E+00
1209.07	116.85	-8.73E+00
1209.38	116.88	-8.75E+00
1209.68	116.91	-8.76E+00
1209.97	116.94	-8.76E+00
1210.29	116.97	-8.77E+00
1210.59	117	-8.78E+00
1210.89	117.03	-8.78E+00
1211.17	117.06	-8.78E+00
1211.474	117.09	-8.80E+00
1211.78	117.12	-8.80E+00
1212.07	117.15	-8.81E+00
1212.38	117.18	-8.82E+00
1212.69	117.21	-8.82E+00
1212.98	117.24	-8.83E+00
1213.27	117.27	-8.84E+00
1213.573	117.3	-8.84E+00
1213.87	117.33	-8.85E+00
1214.18	117.36	-8.85E+00
1214.49	117.39	-8.85E+00
1214.78	117.42	-8.86E+00
1215.09	117.45	-8.87E+00
1215.39	117.48	-8.88E+00
1215.69	117.51	-8.89E+00
1215.97	117.54	-8.89E+00
1216.28	117.57	-8.90E+00
1216.578	117.6	-8.91E+00
1216.87	117.63	-8.91E+00
1217.17	117.66	-8.91E+00
1217.47	117.69	-8.93E+00
1217.79	117.72	-8.93E+00
1218.09	117.75	-8.93E+00
1218.37	117.78	-8.94E+00
1218.68	117.81	-8.95E+00
1218.97	117.84	-8.96E+00
1219.29	117.87	-8.96E+00
1219.58	117.9	-8.97E+00
1219.89	117.93	-8.98E+00
1220.19	117.96	-8.98E+00
1220.47	117.99	-8.98E+00
1220.79	118.02	-8.99E+00
1221.08	118.05	-9.00E+00
1221.38	118.08	-9.00E+00
1221.69	118.11	-9.01E+00
1221.97	118.14	-9.02E+00
1222.28	118.17	-9.02E+00
1222.56	118.2	-9.02E+00
1222.87	118.23	-9.03E+00
1223.17	118.26	-9.04E+00
1223.46	118.29	-9.04E+00
1223.78	118.32	-9.05E+00
1224.08	118.35	-9.06E+00
1224.38	118.38	-9.06E+00
1224.66	118.41	-9.07E+00
1224.96	118.44	-9.07E+00
1225.271	118.47	-9.08E+00
1225.58	118.5	-9.08E+00
1225.88	118.53	-9.09E+00
1226.18	118.56	-9.10E+00
1226.48	118.59	-9.11E+00
1226.76	118.62	-9.11E+00
1227.07	118.65	-9.11E+00
1227.37	118.68	-9.12E+00
1227.67	118.71	-9.12E+00
1227.98	118.74	-9.13E+00
1228.28	118.77	-9.14E+00
1228.58	118.8	-9.14E+00
1228.87	118.83	-9.15E+00
1229.172	118.86	-9.15E+00
1229.47	118.89	-9.16E+00
1229.76	118.92	-9.17E+00
1229.97	118.94	-9.17E+00