File: K06_20_corrected.txt
#FILE:                 ;000393_K06_20_1450_Air-static.sle
#FORMAT:               ;NETZSCH5
#IDENTITY:             ;000393
#DECIMAL:              ;POINT
#SEPARATOR:            ;SEMICOLON
#MTYPE:                ;DIL
#MSUBTYPE:             ;
#INSTRUMENT:           ;NETZSCH DIL 402 C
#PROJECT:              ;
#DATE/TIME:            ;22.06.2021 12:24:13
#CORR. FILE:           ;
#LABORATORY:           ;ЌЊ
#OPERATOR:             ;Ћа«®ў Ќ.
#REMARK:               ;
#SAMPLE:               ;K06_20
#SAMPLE LENGTH /mm:    ;2.170
#MATERIAL:             ;бв ­¤ ав­л© ®Ўа §Ґж
#MEASMODE:             ;Standard Expansion
#PURGE GAS 1:          ;
#FLOW RATE 1 /(ml/min):;0
#CORR. CODE:           ;000
#RANGE:                ;40.0/20.0(K/¬Ё­)/1450.0
#SEGMENT:              ;S1/1

##Temp./шC;Time/min;dL/Lo
800,138	37,84	8,76E-01
800,526	37,86	8,76E-01
800,91998	37,88	8,75E-01
801,31299	37,9	8,75E-01
801,70898	37,92	8,73E-01
802,112	37,94	8,74E-01
802,50702	37,96	8,73E-01
802,90302	37,98	8,72E-01
803,31598	38	8,72E-01
803,69299	38,02	8,71E-01
804,11298	38,04	8,71E-01
804,5	38,06	8,70E-01
804,89502	38,08	8,70E-01
805,28302	38,1	8,69E-01
805,68402	38,12	8,69E-01
806,09198	38,14	8,68E-01
806,48999	38,16	8,67E-01
806,88397	38,18	8,67E-01
807,284	38,2	8,66E-01
807,67603	38,22	8,66E-01
808,08301	38,24	8,65E-01
808,47998	38,26	8,63E-01
808,87799	38,28	8,63E-01
809,26898	38,3	8,63E-01
809,672	38,32	8,62E-01
810,06299	38,34	8,61E-01
810,45898	38,36	8,60E-01
810,86401	38,38	8,59E-01
811,24402	38,4	8,59E-01
811,65002	38,42	8,58E-01
812,05603	38,44	8,57E-01
812,44897	38,46	8,56E-01
812,84399	38,48	8,56E-01
813,24298	38,5	8,55E-01
813,65002	38,52	8,54E-01
814,04303	38,54	8,53E-01
814,43298	38,56	8,53E-01
814,841	38,58	8,52E-01
815,22302	38,6	8,51E-01
815,63098	38,62	8,50E-01
816,04199	38,64	8,50E-01
816,41498	38,66	8,49E-01
816,815	38,68	8,48E-01
817,22601	38,7	8,47E-01
817,61902	38,72	8,46E-01
818,01898	38,74	8,45E-01
818,40997	38,76	8,43E-01
818,80603	38,78	8,43E-01
819,21002	38,8	8,42E-01
819,60101	38,82	8,40E-01
819,992	38,84	8,40E-01
820,396	38,86	8,39E-01
820,79797	38,88	8,38E-01
821,19202	38,9	8,37E-01
821,58301	38,92	8,36E-01
821,98199	38,94	8,35E-01
822,375	38,96	8,34E-01
822,78003	38,98	8,33E-01
823,17499	39	8,32E-01
823,58801	39,02	8,30E-01
823,96997	39,04	8,30E-01
824,35901	39,06	8,28E-01
824,75897	39,08	8,27E-01
825,15802	39,1	8,25E-01
825,56	39,12	8,25E-01
825,96198	39,14	8,24E-01
826,34998	39,16	8,23E-01
826,74701	39,18	8,22E-01
827,14398	39,2	8,21E-01
827,55103	39,22	8,20E-01
827,94598	39,24	8,19E-01
828,33698	39,26	8,17E-01
828,73901	39,28	8,16E-01
829,12299	39,3	8,15E-01
829,53699	39,32	8,14E-01
829,93597	39,34	8,12E-01
830,32898	39,36	8,11E-01
830,72803	39,38	8,10E-01
831,11902	39,4	8,09E-01
831,51501	39,42	8,08E-01
831,914	39,44	8,06E-01
832,323	39,46	8,05E-01
832,72198	39,48	8,04E-01
833,12799	39,5	8,02E-01
833,50702	39,52	8,01E-01
833,909	39,54	7,99E-01
834,31097	39,56	7,99E-01
834,70898	39,58	7,97E-01
835,09497	39,6	7,96E-01
835,48901	39,62	7,94E-01
835,896	39,64	7,92E-01
836,27698	39,66	7,91E-01
836,69202	39,68	7,90E-01
837,07898	39,7	7,87E-01
837,479	39,72	7,86E-01
837,88	39,74	7,85E-01
838,27301	39,76	7,84E-01
838,67603	39,78	7,82E-01
839,07098	39,8	7,81E-01
839,47699	39,82	7,79E-01
839,86298	39,84	7,78E-01
840,25201	39,86	7,76E-01
840,65198	39,88	7,75E-01
841,05402	39,9	7,72E-01
841,45697	39,92	7,71E-01
841,85199	39,94	7,70E-01
842,24799	39,96	7,68E-01
842,65503	39,98	7,67E-01
843,03497	40	7,65E-01
843,43799	40,02	7,64E-01
843,83899	40,04	7,62E-01
844,24298	40,06	7,60E-01
844,63898	40,08	7,59E-01
845,02899	40,1	7,57E-01
845,41998	40,12	7,55E-01
845,83002	40,14	7,54E-01
846,22699	40,16	7,51E-01
846,62201	40,18	7,50E-01
847,02197	40,2	7,48E-01
847,41803	40,22	7,46E-01
847,80701	40,24	7,45E-01
848,21698	40,26	7,43E-01
848,60498	40,28	7,41E-01
849,008	40,3	7,39E-01
849,40698	40,32	7,38E-01
849,80298	40,34	7,37E-01
850,20001	40,36	7,34E-01
850,59698	40,38	7,33E-01
850,99298	40,4	7,30E-01
851,388	40,42	7,28E-01
851,79303	40,44	7,26E-01
852,18597	40,46	7,24E-01
852,57397	40,48	7,23E-01
852,97699	40,5	7,21E-01
853,37097	40,52	7,19E-01
853,76599	40,54	7,16E-01
854,16998	40,56	7,15E-01
854,565	40,58	7,13E-01
854,94299	40,6	7,10E-01
855,35699	40,62	7,09E-01
855,75897	40,64	7,07E-01
856,16101	40,66	7,05E-01
856,55499	40,68	7,03E-01
856,94397	40,7	7,01E-01
857,35498	40,72	6,99E-01
857,73999	40,74	6,97E-01
858,14001	40,76	6,95E-01
858,53802	40,78	6,93E-01
858,93799	40,8	6,90E-01
859,33197	40,82	6,88E-01
859,72498	40,84	6,87E-01
860,14001	40,86	6,84E-01
860,52002	40,88	6,82E-01
860,922	40,9	6,80E-01
861,31702	40,92	6,77E-01
861,71899	40,94	6,75E-01
862,12799	40,96	6,73E-01
862,51703	40,98	6,71E-01
862,91498	41	6,69E-01
863,30701	41,02	6,66E-01
863,698	41,04	6,65E-01
864,091	41,06	6,62E-01
864,49902	41,08	6,60E-01
864,89697	41,1	6,58E-01
865,29102	41,12	6,55E-01
865,698	41,14	6,53E-01
866,08801	41,16	6,50E-01
866,47601	41,18	6,48E-01
866,87097	41,2	6,45E-01
867,27802	41,22	6,43E-01
867,685	41,24	6,41E-01
868,08002	41,26	6,39E-01
868,479	41,28	6,36E-01
868,86603	41,3	6,34E-01
869,27002	41,32	6,32E-01
869,672	41,34	6,29E-01
870,07001	41,36	6,27E-01
870,46198	41,38	6,24E-01
870,85303	41,4	6,22E-01
871,25403	41,42	6,19E-01
871,664	41,44	6,17E-01
872,04999	41,46	6,14E-01
872,44702	41,48	6,11E-01
872,84003	41,5	6,09E-01
873,24298	41,52	6,07E-01
873,63202	41,54	6,04E-01
874,03003	41,56	6,01E-01
874,43103	41,58	5,99E-01
874,83301	41,6	5,96E-01
875,22699	41,62	5,93E-01
875,62799	41,64	5,91E-01
876,01501	41,66	5,88E-01
876,43298	41,68	5,85E-01
876,82397	41,7	5,82E-01
877,21399	41,72	5,80E-01
877,60797	41,74	5,78E-01
878,01202	41,76	5,75E-01
878,40002	41,78	5,72E-01
878,81097	41,8	5,69E-01
879,20502	41,82	5,67E-01
879,60999	41,84	5,64E-01
880,00403	41,86	5,61E-01
880,39301	41,88	5,59E-01
880,79602	41,9	5,56E-01
881,20502	41,92	5,53E-01
881,59698	41,94	5,50E-01
881,98499	41,96	5,47E-01
882,38098	41,98	5,45E-01
882,776	42	5,42E-01
883,18103	42,02	5,39E-01
883,57098	42,04	5,36E-01
883,96301	42,06	5,34E-01
884,367	42,08	5,30E-01
884,76202	42,1	5,27E-01
885,16998	42,12	5,24E-01
885,56201	42,14	5,22E-01
885,96399	42,16	5,19E-01
886,354	42,18	5,16E-01
886,758	42,2	5,13E-01
887,14398	42,22	5,10E-01
887,54797	42,24	5,07E-01
887,94501	42,26	5,04E-01
888,34302	42,28	5,02E-01
888,75201	42,3	4,98E-01
889,133	42,32	4,95E-01
889,54102	42,34	4,92E-01
889,91998	42,36	4,89E-01
890,33301	42,38	4,87E-01
890,73199	42,4	4,84E-01
891,12299	42,42	4,81E-01
891,52301	42,44	4,78E-01
891,927	42,46	4,74E-01
892,31299	42,48	4,71E-01
892,70599	42,5	4,68E-01
893,10699	42,52	4,66E-01
893,51801	42,54	4,62E-01
893,92102	42,56	4,59E-01
894,29901	42,58	4,56E-01
894,70398	42,6	4,53E-01
895,09802	42,62	4,50E-01
895,495	42,64	4,47E-01
895,90503	42,66	4,44E-01
896,31201	42,68	4,40E-01
896,69598	42,7	4,37E-01
897,08502	42,72	4,34E-01
897,48602	42,74	4,31E-01
897,89203	42,76	4,28E-01
898,27899	42,78	4,24E-01
898,68103	42,8	4,21E-01
899,06403	42,82	4,18E-01
899,46698	42,84	4,15E-01
899,87097	42,86	4,12E-01
900,27899	42,88	4,08E-01
900,66498	42,9	4,05E-01
901,06598	42,92	4,03E-01
901,45697	42,94	3,99E-01
901,84497	42,96	3,95E-01
902,26501	42,98	3,93E-01
902,64398	43	3,89E-01
903,052	43,02	3,86E-01
903,45203	43,04	3,83E-01
903,83197	43,06	3,79E-01
904,24298	43,08	3,76E-01
904,64899	43,1	3,73E-01
905,04498	43,12	3,70E-01
905,435	43,14	3,66E-01
905,82599	43,16	3,63E-01
906,22998	43,18	3,60E-01
906,62402	43,2	3,56E-01
907,02002	43,22	3,53E-01
907,41901	43,24	3,50E-01
907,83801	43,26	3,46E-01
908,22498	43,28	3,43E-01
908,61902	43,3	3,40E-01
909,00897	43,32	3,36E-01
909,41901	43,34	3,33E-01
909,82098	43,36	3,29E-01
910,20398	43,38	3,26E-01
910,60101	43,4	3,23E-01
910,99799	43,42	3,19E-01
911,39697	43,44	3,16E-01
911,797	43,46	3,12E-01
912,20898	43,48	3,08E-01
912,60199	43,5	3,05E-01
912,98499	43,52	3,02E-01
913,38898	43,54	2,98E-01
913,77399	43,56	2,95E-01
914,17297	43,58	2,91E-01
914,578	43,6	2,87E-01
914,97803	43,62	2,84E-01
915,36798	43,64	2,81E-01
915,76703	43,66	2,77E-01
916,15802	43,68	2,74E-01
916,57098	43,7	2,70E-01
916,96899	43,72	2,67E-01
917,36298	43,74	2,63E-01
917,74799	43,76	2,60E-01
918,151	43,78	2,56E-01
918,54602	43,8	2,53E-01
918,95502	43,82	2,48E-01
919,341	43,84	2,45E-01
919,745	43,86	2,41E-01
920,14001	43,88	2,38E-01
920,547	43,9	2,34E-01
920,93597	43,92	2,30E-01
921,32703	43,94	2,27E-01
921,73602	43,96	2,23E-01
922,13397	43,98	2,20E-01
922,53198	44	2,16E-01
922,93201	44,02	2,12E-01
923,31897	44,04	2,08E-01
923,72699	44,06	2,04E-01
924,12299	44,08	2,01E-01
924,51599	44,1	1,97E-01
924,90698	44,12	1,94E-01
925,29901	44,14	1,90E-01
925,70099	44,16	1,86E-01
926,10498	44,18	1,82E-01
926,508	44,2	1,78E-01
926,89398	44,22	1,74E-01
927,29498	44,24	1,71E-01
927,68799	44,26	1,67E-01
928,086	44,28	1,63E-01
928,48102	44,3	1,59E-01
928,88	44,32	1,55E-01
929,28802	44,34	1,52E-01
929,67798	44,36	1,48E-01
930,07001	44,38	1,44E-01
930,466	44,4	1,40E-01
930,85101	44,42	1,36E-01
931,26501	44,44	1,32E-01
931,66498	44,46	1,29E-01
932,06403	44,48	1,24E-01
932,45697	44,5	1,20E-01
932,85901	44,52	1,16E-01
933,25	44,54	1,12E-01
933,65698	44,56	1,09E-01
934,05402	44,58	1,05E-01
934,45398	44,6	1,01E-01
934,84302	44,62	9,69E-02
935,23199	44,64	9,34E-02
935,63202	44,66	8,88E-02
936,03601	44,68	8,47E-02
936,44202	44,7	8,06E-02
936,828	44,72	7,63E-02
937,21997	44,74	7,25E-02
937,61798	44,76	6,85E-02
938,01398	44,78	6,45E-02
938,41901	44,8	6,04E-02
938,81598	44,82	5,62E-02
939,216	44,84	5,20E-02
939,61902	44,86	4,80E-02
940,00702	44,88	4,39E-02
940,39899	44,9	3,94E-02
940,802	44,92	3,58E-02
941,20203	44,94	3,12E-02
941,60797	44,96	2,71E-02
941,992	44,98	2,30E-02
942,383	45	1,86E-02
942,79401	45,02	1,43E-02
943,19501	45,04	1,04E-02
943,58197	45,06	6,34E-03
943,98297	45,08	1,90E-03
944,37402	45,1	-2,60E-03
944,771	45,12	-6,76E-03
945,15503	45,14	-1,15E-02
945,56598	45,16	-1,56E-02
945,96198	45,18	-2,04E-02
946,35498	45,2	-2,43E-02
946,75403	45,22	-2,90E-02
947,15503	45,24	-3,37E-02
947,54797	45,26	-3,81E-02
947,93903	45,28	-4,25E-02
948,34998	45,3	-4,73E-02
948,75	45,32	-5,18E-02
949,13098	45,34	-5,64E-02
949,53998	45,36	-6,11E-02
949,92297	45,38	-6,55E-02
950,32898	45,4	-7,03E-02
950,74298	45,42	-7,51E-02
951,12201	45,44	-7,96E-02
951,52301	45,46	-8,48E-02
951,91498	45,48	-8,99E-02
952,30798	45,5	-9,46E-02
952,703	45,52	-9,98E-02
953,10101	45,54	-1,04E-01
953,52197	45,56	-1,09E-01
953,91302	45,58	-1,14E-01
954,30798	45,6	-1,19E-01
954,70398	45,62	-1,24E-01
955,09198	45,64	-1,29E-01
955,495	45,66	-1,34E-01
955,89203	45,68	-1,39E-01
956,28601	45,7	-1,44E-01
956,67999	45,72	-1,49E-01
957,08899	45,74	-1,54E-01
957,47498	45,76	-1,59E-01
957,87701	45,78	-1,65E-01
958,27899	45,8	-1,70E-01
958,68103	45,82	-1,75E-01
959,06799	45,84	-1,80E-01
959,47101	45,86	-1,85E-01
959,86499	45,88	-1,90E-01
960,255	45,9	-1,95E-01
960,66998	45,92	-2,00E-01
961,06702	45,94	-2,05E-01
961,45203	45,96	-2,11E-01
961,85797	45,98	-2,16E-01
962,24701	46	-2,21E-01
962,646	46,02	-2,26E-01
963,05103	46,04	-2,32E-01
963,44397	46,06	-2,37E-01
963,836	46,08	-2,42E-01
964,23102	46,1	-2,47E-01
964,63202	46,12	-2,52E-01
965,04102	46,14	-2,58E-01
965,41901	46,16	-2,63E-01
965,836	46,18	-2,68E-01
966,237	46,2	-2,74E-01
966,63	46,22	-2,79E-01
967,01501	46,24	-2,84E-01
967,409	46,26	-2,89E-01
967,82501	46,28	-2,95E-01
968,22601	46,3	-3,00E-01
968,62097	46,32	-3,06E-01
969,005	46,34	-3,11E-01
969,41602	46,36	-3,17E-01
969,79498	46,38	-3,22E-01
970,216	46,4	-3,27E-01
970,59601	46,42	-3,33E-01
971,005	46,44	-3,38E-01
971,40198	46,46	-3,43E-01
971,78699	46,48	-3,49E-01
972,185	46,5	-3,54E-01
972,58197	46,52	-3,60E-01
972,99103	46,54	-3,65E-01
973,38	46,56	-3,71E-01
973,78497	46,58	-3,77E-01
974,17102	46,6	-3,82E-01
974,573	46,62	-3,88E-01
974,961	46,64	-3,93E-01
975,37402	46,66	-3,99E-01
975,77301	46,68	-4,04E-01
976,16302	46,7	-4,10E-01
976,55298	46,72	-4,16E-01
976,95001	46,74	-4,21E-01
977,35498	46,76	-4,27E-01
977,74799	46,78	-4,33E-01
978,15601	46,8	-4,39E-01
978,54602	46,82	-4,45E-01
978,94098	46,84	-4,50E-01
979,34003	46,86	-4,56E-01
979,73602	46,88	-4,62E-01
980,13397	46,9	-4,68E-01
980,53198	46,92	-4,74E-01
980,93298	46,94	-4,79E-01
981,33398	46,96	-4,85E-01
981,73401	46,98	-4,91E-01
982,13501	47	-4,98E-01
982,53601	47,02	-5,03E-01
982,91901	47,04	-5,09E-01
983,31799	47,06	-5,15E-01
983,70801	47,08	-5,21E-01
984,10999	47,1	-5,27E-01
984,51001	47,12	-5,33E-01
984,90601	47,14	-5,39E-01
985,31403	47,16	-5,45E-01
985,70599	47,18	-5,51E-01
986,10699	47,2	-5,57E-01
986,50897	47,22	-5,63E-01
986,89801	47,24	-5,69E-01
987,30298	47,26	-5,76E-01
987,69501	47,28	-5,81E-01
988,09998	47,3	-5,87E-01
988,48102	47,32	-5,94E-01
988,89001	47,34	-6,00E-01
989,276	47,36	-6,06E-01
989,68201	47,38	-6,12E-01
990,078	47,4	-6,19E-01
990,48102	47,42	-6,25E-01
990,87097	47,44	-6,31E-01
991,276	47,46	-6,38E-01
991,66901	47,48	-6,44E-01
992,06201	47,5	-6,50E-01
992,47302	47,52	-6,56E-01
992,87201	47,54	-6,62E-01
993,26599	47,56	-6,68E-01
993,65601	47,58	-6,75E-01
994,05402	47,6	-6,81E-01
994,45398	47,62	-6,87E-01
994,86603	47,64	-6,94E-01
995,26202	47,66	-7,00E-01
995,65698	47,68	-7,06E-01
996,04602	47,7	-7,13E-01
996,44299	47,72	-7,19E-01
996,84003	47,74	-7,25E-01
997,24402	47,76	-7,32E-01
997,64203	47,78	-7,38E-01
998,03802	47,8	-7,44E-01
998,43298	47,82	-7,50E-01
998,83301	47,84	-7,56E-01
999,23199	47,86	-7,61E-01
999,63397	47,88	-7,67E-01
1000,02698	47,9	-7,73E-01
1000,42102	47,92	-7,79E-01
1000,823	47,94	-7,85E-01
1001,21002	47,96	-7,91E-01
1001,62097	47,98	-7,97E-01
1002,021	48	-8,03E-01
1002,43298	48,02	-8,09E-01
1002,81299	48,04	-8,15E-01
1003,21399	48,06	-8,21E-01
1003,604	48,08	-8,27E-01
1004,00201	48,1	-8,34E-01
1004,41199	48,12	-8,40E-01
1004,79797	48,14	-8,46E-01
1005,19897	48,16	-8,53E-01
1005,59998	48,18	-8,59E-01
1005,98798	48,2	-8,65E-01
1006,388	48,22	-8,72E-01
1006,77802	48,24	-8,78E-01
1007,19598	48,26	-8,85E-01
1007,591	48,28	-8,92E-01
1007,98102	48,3	-8,97E-01
1008,388	48,32	-9,05E-01
1008,776	48,34	-9,11E-01
1009,17102	48,36	-9,18E-01
1009,586	48,38	-9,25E-01
1009,98401	48,4	-9,31E-01
1010,37799	48,42	-9,38E-01
1010,76501	48,44	-9,44E-01
1011,16498	48,46	-9,50E-01
1011,56097	48,48	-9,56E-01
1011,95203	48,5	-9,62E-01
1012,35999	48,52	-9,68E-01
1012,763	48,54	-9,74E-01
1013,15997	48,56	-9,80E-01
1013,56	48,58	-9,86E-01
1013,948	48,6	-9,92E-01
1014,35797	48,62	-9,98E-01
1014,75598	48,64	-1,00E+00
1015,14801	48,66	-1,01E+00
1015,539	48,68	-1,02E+00
1015,93402	48,7	-1,02E+00
1016,33801	48,72	-1,03E+00
1016,75098	48,74	-1,03E+00
1017,14099	48,76	-1,04E+00
1017,54498	48,78	-1,05E+00
1017,92499	48,8	-1,05E+00
1018,34302	48,82	-1,06E+00
1018,71899	48,84	-1,07E+00
1019,11798	48,86	-1,07E+00
1019,526	48,88	-1,08E+00
1019,92401	48,9	-1,09E+00
1020,33698	48,92	-1,09E+00
1020,73102	48,94	-1,10E+00
1021,11499	48,96	-1,11E+00
1021,513	48,98	-1,11E+00
1021,91602	49	-1,12E+00
1022,32202	49,02	-1,13E+00
1022,69897	49,04	-1,13E+00
1023,09399	49,06	-1,14E+00
1023,50403	49,08	-1,15E+00
1023,91199	49,1	-1,16E+00
1024,29797	49,12	-1,16E+00
1024,69495	49,14	-1,17E+00
1025,09204	49,16	-1,18E+00
1025,49304	49,18	-1,18E+00
1025,88794	49,2	-1,19E+00
1026,28796	49,22	-1,20E+00
1026,68994	49,24	-1,20E+00
1027,09094	49,26	-1,21E+00
1027,48901	49,28	-1,22E+00
1027,88196	49,3	-1,23E+00
1028,271	49,32	-1,23E+00
1028,66296	49,34	-1,24E+00
1029,06604	49,36	-1,25E+00
1029,45496	49,38	-1,26E+00
1029,85901	49,4	-1,26E+00
1030,27502	49,42	-1,27E+00
1030,66602	49,44	-1,28E+00
1031,05103	49,46	-1,28E+00
1031,453	49,48	-1,29E+00
1031,854	49,5	-1,30E+00
1032,25305	49,52	-1,31E+00
1032,66003	49,54	-1,31E+00
1033,03699	49,56	-1,32E+00
1033,45703	49,58	-1,33E+00
1033,83496	49,6	-1,34E+00
1034,24402	49,62	-1,35E+00
1034,64001	49,64	-1,35E+00
1035,03296	49,66	-1,36E+00
1035,43103	49,68	-1,37E+00
1035,82495	49,7	-1,38E+00
1036,22205	49,72	-1,38E+00
1036,61902	49,74	-1,39E+00
1037,03003	49,76	-1,40E+00
1037,42603	49,78	-1,41E+00
1037,81995	49,8	-1,41E+00
1038,23706	49,82	-1,42E+00
1038,62097	49,84	-1,43E+00
1039,00598	49,86	-1,44E+00
1039,41394	49,88	-1,45E+00
1039,81104	49,9	-1,45E+00
1040,21997	49,92	-1,46E+00
1040,61304	49,94	-1,47E+00
1041,01099	49,96	-1,48E+00
1041,41699	49,98	-1,49E+00
1041,79297	50	-1,49E+00
1042,20996	50,02	-1,50E+00
1042,58606	50,04	-1,51E+00
1042,98901	50,06	-1,52E+00
1043,38794	50,08	-1,53E+00
1043,77795	50,1	-1,54E+00
1044,18506	50,12	-1,54E+00
1044,58997	50,14	-1,55E+00
1044,98303	50,16	-1,56E+00
1045,37598	50,18	-1,57E+00
1045,78101	50,2	-1,58E+00
1046,17102	50,22	-1,59E+00
1046,58105	50,24	-1,59E+00
1046,96704	50,26	-1,60E+00
1047,36304	50,28	-1,61E+00
1047,77197	50,3	-1,62E+00
1048,16602	50,32	-1,63E+00
1048,55103	50,34	-1,64E+00
1048,95996	50,36	-1,64E+00
1049,36096	50,38	-1,65E+00
1049,75305	50,4	-1,66E+00
1050,14404	50,42	-1,67E+00
1050,55396	50,44	-1,68E+00
1050,94202	50,46	-1,69E+00
1051,33801	50,48	-1,70E+00
1051,74304	50,5	-1,70E+00
1052,14294	50,52	-1,71E+00
1052,53699	50,54	-1,72E+00
1052,93506	50,56	-1,73E+00
1053,33203	50,58	-1,74E+00
1053,73096	50,6	-1,75E+00
1054,125	50,62	-1,76E+00
1054,53198	50,64	-1,77E+00
1054,92297	50,66	-1,77E+00
1055,32996	50,68	-1,78E+00
1055,729	50,7	-1,79E+00
1056,12903	50,72	-1,80E+00
1056,50403	50,74	-1,81E+00
1056,927	50,76	-1,82E+00
1057,31799	50,78	-1,83E+00
1057,72705	50,8	-1,84E+00
1058,11096	50,82	-1,85E+00
1058,49402	50,84	-1,85E+00
1058,896	50,86	-1,86E+00
1059,30701	50,88	-1,87E+00
1059,70703	50,9	-1,88E+00
1060,09497	50,92	-1,89E+00
1060,5	50,94	-1,90E+00
1060,896	50,96	-1,91E+00
1061,29004	50,98	-1,92E+00
1061,68604	51	-1,93E+00
1062,09705	51,02	-1,93E+00
1062,49402	51,04	-1,94E+00
1062,88098	51,06	-1,95E+00
1063,27295	51,08	-1,96E+00
1063,67505	51,1	-1,97E+00
1064,08496	51,12	-1,98E+00
1064,46899	51,14	-1,99E+00
1064,87903	51,16	-2,00E+00
1065,28296	51,18	-2,01E+00
1065,67603	51,2	-2,02E+00
1066,07397	51,22	-2,03E+00
1066,47095	51,24	-2,04E+00
1066,86096	51,26	-2,05E+00
1067,27295	51,28	-2,06E+00
1067,66895	51,3	-2,06E+00
1068,06494	51,32	-2,07E+00
1068,448	51,34	-2,08E+00
1068,85303	51,36	-2,09E+00
1069,24597	51,38	-2,10E+00
1069,64697	51,4	-2,11E+00
1070,052	51,42	-2,12E+00
1070,453	51,44	-2,13E+00
1070,83398	51,46	-2,14E+00
1071,23401	51,48	-2,15E+00
1071,64099	51,5	-2,16E+00
1072,03296	51,52	-2,17E+00
1072,44604	51,54	-2,18E+00
1072,82898	51,56	-2,19E+00
1073,229	51,58	-2,20E+00
1073,63	51,6	-2,21E+00
1074,03198	51,62	-2,21E+00
1074,43396	51,64	-2,22E+00
1074,81604	51,66	-2,23E+00
1075,23706	51,68	-2,24E+00
1075,62598	51,7	-2,25E+00
1076,01904	51,72	-2,26E+00
1076,41101	51,74	-2,27E+00
1076,80701	51,76	-2,28E+00
1077,22205	51,78	-2,29E+00
1077,61597	51,8	-2,30E+00
1078,02795	51,82	-2,31E+00
1078,40405	51,84	-2,32E+00
1078,79504	51,86	-2,33E+00
1079,18701	51,88	-2,34E+00
1079,61304	51,9	-2,35E+00
1079,99902	51,92	-2,36E+00
1080,40906	51,94	-2,37E+00
1080,79004	51,96	-2,38E+00
1081,19202	51,98	-2,39E+00
1081,58801	52	-2,40E+00
1081,98096	52,02	-2,41E+00
1082,39197	52,04	-2,42E+00
1082,79297	52,06	-2,43E+00
1083,19299	52,08	-2,44E+00
1083,58398	52,1	-2,45E+00
1083,97498	52,12	-2,46E+00
1084,375	52,14	-2,47E+00
1084,78101	52,16	-2,48E+00
1085,18103	52,18	-2,49E+00
1085,57703	52,2	-2,50E+00
1085,97302	52,22	-2,51E+00
1086,35999	52,24	-2,52E+00
1086,76196	52,26	-2,53E+00
1087,15601	52,28	-2,54E+00
1087,57104	52,3	-2,55E+00
1087,96899	52,32	-2,56E+00
1088,36206	52,34	-2,56E+00
1088,745	52,36	-2,58E+00
1089,14502	52,38	-2,58E+00
1089,53894	52,4	-2,60E+00
1089,94897	52,42	-2,61E+00
1090,35205	52,44	-2,62E+00
1090,75305	52,46	-2,63E+00
1091,14197	52,48	-2,64E+00
1091,54102	52,5	-2,64E+00
1091,93701	52,52	-2,66E+00
1092,33801	52,54	-2,66E+00
1092,73804	52,56	-2,68E+00
1093,13	52,58	-2,69E+00
1093,53198	52,6	-2,70E+00
1093,92102	52,62	-2,71E+00
1094,31799	52,64	-2,72E+00
1094,71399	52,66	-2,73E+00
1095,12097	52,68	-2,74E+00
1095,52002	52,7	-2,75E+00
1095,91296	52,72	-2,76E+00
1096,31299	52,74	-2,77E+00
1096,70105	52,76	-2,78E+00
1097,099	52,78	-2,79E+00
1097,50195	52,8	-2,80E+00
1097,90601	52,82	-2,81E+00
1098,302	52,84	-2,82E+00
1098,69604	52,86	-2,83E+00
1099,08899	52,88	-2,84E+00
1099,49304	52,9	-2,85E+00
1099,89001	52,92	-2,86E+00
1100,29602	52,94	-2,87E+00
1100,69299	52,96	-2,88E+00
1101,08801	52,98	-2,89E+00
1101,49695	53	-2,91E+00
1101,88599	53,02	-2,92E+00
1102,28198	53,04	-2,93E+00
1102,68005	53,06	-2,94E+00
1103,08704	53,08	-2,95E+00
1103,47498	53,1	-2,96E+00
1103,87305	53,12	-2,97E+00
1104,27295	53,14	-2,98E+00
1104,66296	53,16	-2,99E+00
1105,073	53,18	-3,00E+00
1105,46497	53,2	-3,01E+00
1105,87305	53,22	-3,02E+00
1106,26599	53,24	-3,03E+00
1106,65503	53,26	-3,05E+00
1107,06104	53,28	-3,06E+00
1107,45203	53,3	-3,07E+00
1107,86499	53,32	-3,08E+00
1108,25806	53,34	-3,09E+00
1108,64905	53,36	-3,10E+00
1109,04102	53,38	-3,11E+00
1109,45203	53,4	-3,12E+00
1109,83997	53,42	-3,13E+00
1110,24304	53,44	-3,14E+00
1110,64099	53,46	-3,16E+00
1111,03894	53,48	-3,17E+00
1111,43701	53,5	-3,18E+00
1111,84497	53,52	-3,19E+00
1112,22998	53,54	-3,20E+00
1112,62903	53,56	-3,21E+00
1113,03101	53,58	-3,22E+00
1113,42798	53,6	-3,23E+00
1113,82397	53,62	-3,24E+00
1114,23499	53,64	-3,25E+00
1114,62	53,66	-3,27E+00
1115,01294	53,68	-3,28E+00
1115,41101	53,7	-3,29E+00
1115,82104	53,72	-3,30E+00
1116,21899	53,74	-3,31E+00
1116,61401	53,76	-3,32E+00
1117,00598	53,78	-3,33E+00
1117,40906	53,8	-3,34E+00
1117,802	53,82	-3,35E+00
1118,21399	53,84	-3,36E+00
1118,61499	53,86	-3,38E+00
1119,01404	53,88	-3,39E+00
1119,41101	53,9	-3,40E+00
1119,79895	53,92	-3,41E+00
1120,20996	53,94	-3,42E+00
1120,60901	53,96	-3,43E+00
1121,00305	53,98	-3,45E+00
1121,39502	54	-3,46E+00
1121,79297	54,02	-3,47E+00
1122,19202	54,04	-3,48E+00
1122,58801	54,06	-3,49E+00
1122,98206	54,08	-3,50E+00
1123,39099	54,1	-3,51E+00
1123,79004	54,12	-3,53E+00
1124,18298	54,14	-3,54E+00
1124,57996	54,16	-3,55E+00
1124,98303	54,18	-3,56E+00
1125,39001	54,2	-3,57E+00
1125,77905	54,22	-3,58E+00
1126,18103	54,24	-3,60E+00
1126,58606	54,26	-3,61E+00
1126,98499	54,28	-3,62E+00
1127,37805	54,3	-3,63E+00
1127,76599	54,32	-3,64E+00
1128,16394	54,34	-3,66E+00
1128,573	54,36	-3,67E+00
1128,96899	54,38	-3,68E+00
1129,37195	54,4	-3,69E+00
1129,76001	54,42	-3,70E+00
1130,16003	54,44	-3,71E+00
1130,57397	54,46	-3,73E+00
1130,93896	54,48	-3,74E+00
1131,354	54,5	-3,75E+00
1131,74304	54,52	-3,76E+00
1132,151	54,54	-3,77E+00
1132,55505	54,56	-3,79E+00
1132,94397	54,58	-3,80E+00
1133,33496	54,6	-3,81E+00
1133,73401	54,62	-3,82E+00
1134,13794	54,64	-3,83E+00
1134,54102	54,66	-3,85E+00
1134,92896	54,68	-3,86E+00
1135,32605	54,7	-3,87E+00
1135,74097	54,72	-3,88E+00
1136,13098	54,74	-3,89E+00
1136,52795	54,76	-3,91E+00
1136,93994	54,78	-3,92E+00
1137,33105	54,8	-3,93E+00
1137,72302	54,82	-3,94E+00
1138,11304	54,84	-3,95E+00
1138,51294	54,86	-3,97E+00
1138,92004	54,88	-3,98E+00
1139,31494	54,9	-3,99E+00
1139,72302	54,92	-4,00E+00
1140,11401	54,94	-4,02E+00
1140,51501	54,96	-4,03E+00
1140,92395	54,98	-4,04E+00
1141,30798	55	-4,05E+00
1141,70398	55,02	-4,07E+00
1142,11804	55,04	-4,08E+00
1142,51099	55,06	-4,09E+00
1142,90698	55,08	-4,10E+00
1143,30298	55,1	-4,11E+00
1143,69702	55,12	-4,13E+00
1144,11401	55,14	-4,14E+00
1144,51794	55,16	-4,15E+00
1144,89795	55,18	-4,17E+00
1145,29297	55,2	-4,18E+00
1145,69202	55,22	-4,19E+00
1146,10999	55,24	-4,20E+00
1146,48596	55,26	-4,22E+00
1146,88599	55,28	-4,23E+00
1147,29602	55,3	-4,24E+00
1147,68396	55,32	-4,25E+00
1148,08801	55,34	-4,27E+00
1148,48499	55,36	-4,28E+00
1148,88599	55,38	-4,29E+00
1149,29797	55,4	-4,31E+00
1149,68103	55,42	-4,32E+00
1150,08704	55,44	-4,33E+00
1150,49194	55,46	-4,34E+00
1150,87402	55,48	-4,35E+00
1151,29102	55,5	-4,37E+00
1151,66797	55,52	-4,38E+00
1152,078	55,54	-4,39E+00
1152,47998	55,56	-4,41E+00
1152,87305	55,58	-4,42E+00
1153,26904	55,6	-4,43E+00
1153,66602	55,62	-4,44E+00
1154,06006	55,64	-4,46E+00
1154,474	55,66	-4,47E+00
1154,86401	55,68	-4,48E+00
1155,26099	55,7	-4,49E+00
1155,66602	55,72	-4,51E+00
1156,06604	55,74	-4,52E+00
1156,45703	55,76	-4,53E+00
1156,85803	55,78	-4,55E+00
1157,255	55,8	-4,56E+00
1157,65002	55,82	-4,57E+00
1158,05005	55,84	-4,58E+00
1158,44897	55,86	-4,60E+00
1158,84705	55,88	-4,61E+00
1159,24597	55,9	-4,62E+00
1159,64099	55,92	-4,64E+00
1160,03699	55,94	-4,65E+00
1160,45398	55,96	-4,66E+00
1160,82898	55,98	-4,68E+00
1161,23596	56	-4,69E+00
1161,62805	56,02	-4,70E+00
1162,02295	56,04	-4,72E+00
1162,42603	56,06	-4,73E+00
1162,83801	56,08	-4,74E+00
1163,22205	56,1	-4,75E+00
1163,625	56,12	-4,77E+00
1164,02405	56,14	-4,78E+00
1164,41895	56,16	-4,79E+00
1164,823	56,18	-4,81E+00
1165,229	56,2	-4,82E+00
1165,61804	56,22	-4,84E+00
1166,01196	56,24	-4,85E+00
1166,41504	56,26	-4,86E+00
1166,80396	56,28	-4,87E+00
1167,20105	56,3	-4,89E+00
1167,61499	56,32	-4,90E+00
1168,01404	56,34	-4,92E+00
1168,41797	56,36	-4,93E+00
1168,81604	56,38	-4,94E+00
1169,20203	56,4	-4,96E+00
1169,59802	56,42	-4,97E+00
1170,01794	56,44	-4,98E+00
1170,40295	56,46	-4,99E+00
1170,80505	56,48	-5,01E+00
1171,19495	56,5	-5,02E+00
1171,60095	56,52	-5,03E+00
1171,99597	56,54	-5,05E+00
1172,39697	56,56	-5,06E+00
1172,79602	56,58	-5,08E+00
1173,18994	56,6	-5,09E+00
1173,58398	56,62	-5,10E+00
1173,98303	56,64	-5,12E+00
1174,38403	56,66	-5,13E+00
1174,79004	56,68	-5,14E+00
1175,19995	56,7	-5,16E+00
1175,59302	56,72	-5,17E+00
1175,98303	56,74	-5,18E+00
1176,38	56,76	-5,20E+00
1176,77905	56,78	-5,21E+00
1177,17004	56,8	-5,22E+00
1177,578	56,82	-5,24E+00
1177,98096	56,84	-5,25E+00
1178,38	56,86	-5,26E+00
1178,76904	56,88	-5,28E+00
1179,172	56,9	-5,29E+00
1179,56006	56,92	-5,30E+00
1179,95996	56,94	-5,32E+00
1180,36804	56,96	-5,33E+00
1180,76599	56,98	-5,34E+00
1181,16504	57	-5,36E+00
1181,56604	57,02	-5,37E+00
1181,95203	57,04	-5,38E+00
1182,34595	57,06	-5,40E+00
1182,75	57,08	-5,41E+00
1183,15503	57,1	-5,42E+00
1183,55298	57,12	-5,44E+00
1183,948	57,14	-5,45E+00
1184,35303	57,16	-5,46E+00
1184,73901	57,18	-5,48E+00
1185,14001	57,2	-5,49E+00
1185,552	57,22	-5,50E+00
1185,948	57,24	-5,52E+00
1186,35498	57,26	-5,53E+00
1186,745	57,28	-5,54E+00
1187,14404	57,3	-5,56E+00
1187,54102	57,32	-5,57E+00
1187,93396	57,34	-5,59E+00
1188,33704	57,36	-5,60E+00
1188,73901	57,38	-5,61E+00
1189,14001	57,4	-5,62E+00
1189,53601	57,42	-5,64E+00
1189,93701	57,44	-5,65E+00
1190,33301	57,46	-5,67E+00
1190,73303	57,48	-5,68E+00
1191,11499	57,5	-5,69E+00
1191,53699	57,52	-5,71E+00
1191,93506	57,54	-5,72E+00
1192,31995	57,56	-5,73E+00
1192,724	57,58	-5,75E+00
1193,12195	57,6	-5,76E+00
1193,50903	57,62	-5,77E+00
1193,91602	57,64	-5,79E+00
1194,31995	57,66	-5,80E+00
1194,71301	57,68	-5,81E+00
1195,11499	57,7	-5,83E+00
1195,495	57,72	-5,84E+00
1195,89697	57,74	-5,85E+00
1196,31897	57,76	-5,87E+00
1196,70605	57,78	-5,88E+00
1197,11597	57,8	-5,90E+00
1197,50403	57,82	-5,91E+00
1197,89905	57,84	-5,92E+00
1198,28894	57,86	-5,94E+00
1198,69995	57,88	-5,95E+00
1199,12305	57,9	-5,96E+00
1199,50305	57,92	-5,97E+00
1199,90405	57,94	-5,99E+00
1200,28894	57,96	-6,00E+00
1200,70398	57,98	-6,01E+00
1201,08704	58	-6,03E+00
1201,48804	58,02	-6,04E+00
1201,89001	58,04	-6,05E+00
1202,29602	58,06	-6,07E+00
1202,69495	58,08	-6,08E+00
1203,08203	58,1	-6,09E+00
1203,47595	58,12	-6,11E+00
1203,87598	58,14	-6,12E+00
1204,28503	58,16	-6,13E+00
1204,677	58,18	-6,14E+00
1205,08496	58,2	-6,16E+00
1205,46704	58,22	-6,17E+00
1205,875	58,24	-6,19E+00
1206,27405	58,26	-6,20E+00
1206,67798	58,28	-6,21E+00
1207,078	58,3	-6,22E+00
1207,474	58,32	-6,23E+00
1207,86206	58,34	-6,25E+00
1208,25806	58,36	-6,26E+00
1208,64905	58,38	-6,28E+00
1209,05505	58,4	-6,29E+00
1209,46301	58,42	-6,30E+00
1209,86401	58,44	-6,31E+00
1210,25903	58,46	-6,33E+00
1210,64294	58,48	-6,34E+00
1211,05798	58,5	-6,35E+00
1211,44897	58,52	-6,36E+00
1211,86499	58,54	-6,38E+00
1212,26599	58,56	-6,39E+00
1212,646	58,58	-6,40E+00
1213,05396	58,6	-6,41E+00
1213,45105	58,62	-6,42E+00
1213,84497	58,64	-6,44E+00
1214,24402	58,66	-6,45E+00
1214,66296	58,68	-6,46E+00
1215,05005	58,7	-6,48E+00
1215,44397	58,72	-6,48E+00
1215,84399	58,74	-6,50E+00
1216,24805	58,76	-6,51E+00
1216,64697	58,78	-6,52E+00
1217,05103	58,8	-6,53E+00
1217,43396	58,82	-6,54E+00
1217,84497	58,84	-6,56E+00
1218,24805	58,86	-6,57E+00
1218,63501	58,88	-6,58E+00
1219,03003	58,9	-6,59E+00
1219,427	58,92	-6,61E+00
1219,82996	58,94	-6,62E+00
1220,23804	58,96	-6,63E+00
1220,64001	58,98	-6,64E+00
1221,03003	59	-6,65E+00
1221,42395	59,02	-6,66E+00
1221,82495	59,04	-6,67E+00
1222,21899	59,06	-6,68E+00
1222,625	59,08	-6,69E+00
1223,02197	59,1	-6,71E+00
1223,43103	59,12	-6,72E+00
1223,82202	59,14	-6,73E+00
1224,21594	59,16	-6,74E+00
1224,60095	59,18	-6,75E+00
1225,01196	59,2	-6,76E+00
1225,41699	59,22	-6,77E+00
1225,81702	59,24	-6,79E+00
1226,22705	59,26	-6,80E+00
1226,61096	59,28	-6,81E+00
1227,00696	59,3	-6,82E+00
1227,401	59,32	-6,83E+00
1227,80298	59,34	-6,84E+00
1228,20996	59,36	-6,85E+00
1228,61401	59,38	-6,86E+00
1229,00696	59,4	-6,87E+00
1229,39795	59,42	-6,88E+00
1229,802	59,44	-6,89E+00
1229,99805	59,45	-6,90E+00