File: K06_5_corrected.txt
#FILE:                 ;000397_K06_5_1350_Air-static.sle
#FORMAT:               ;NETZSCH5
#IDENTITY:             ;000397
#DECIMAL:              ;POINT
#SEPARATOR:            ;SEMICOLON
#MTYPE:                ;DIL
#MSUBTYPE:             ;
#INSTRUMENT:           ;NETZSCH DIL 402 C
#PROJECT:              ;
#DATE/TIME:            ;24.06.2021 13:17:17
#CORR. FILE:           ;
#LABORATORY:           ;ЌЊ
#OPERATOR:             ;Ћа«®ў Ќ.
#REMARK:               ;
#SAMPLE:               ;corr_5
#SAMPLE LENGTH /mm:    ;2.400
#MATERIAL:             ;бв ­¤ ав­л© ®Ўа §Ґж
#MEASMODE:             ;Standard Expansion
#PURGE GAS 1:          ;
#FLOW RATE 1 /(ml/min):;0
#CORR. CODE:           ;000
#RANGE:                ;40.0/5.0(K/¬Ё­)/1350.0
#SEGMENT:              ;S1/1

##Temp./шC;Time/min;dL/Lo
800.044	151.85	3.43E-01
800.342	151.91	3.42E-01
800.63	151.97	3.40E-01
800.936	152.03	3.38E-01
801.234	152.09	3.36E-01
801.532	152.15	3.35E-01
801.841	152.21	3.34E-01
802.133	152.27	3.32E-01
802.437	152.33	3.31E-01
802.734	152.39	3.30E-01
803.039	152.45	3.28E-01
803.329	152.51	3.26E-01
803.633	152.57	3.25E-01
803.934	152.63	3.24E-01
804.23	152.69	3.22E-01
804.532	152.75	3.20E-01
804.831	152.81	3.19E-01
805.144	152.87	3.18E-01
805.435	152.93	3.15E-01
805.732	152.99	3.14E-01
806.032	153.05	3.12E-01
806.327	153.11	3.11E-01
806.625	153.17	3.09E-01
806.934	153.23	3.07E-01
807.229	153.29	3.06E-01
807.531	153.35	3.03E-01
807.819	153.41	3.02E-01
808.123	153.47	3.00E-01
808.428	153.53	2.99E-01
808.723	153.59	2.97E-01
809.032	153.65	2.95E-01
809.327	153.71	2.94E-01
809.636	153.77	2.92E-01
809.94	153.83	2.90E-01
810.233	153.89	2.89E-01
810.533	153.95	2.86E-01
810.83	154.01	2.85E-01
811.135	154.07	2.83E-01
811.428	154.13	2.81E-01
811.723	154.19	2.80E-01
812.036	154.25	2.77E-01
812.325	154.31	2.76E-01
812.616	154.37	2.73E-01
812.933	154.43	2.72E-01
813.221	154.49	2.70E-01
813.521	154.55	2.69E-01
813.826	154.61	2.67E-01
814.118	154.67	2.65E-01
814.433	154.73	2.63E-01
814.727	154.79	2.61E-01
815.026	154.85	2.59E-01
815.336	154.91	2.57E-01
815.635	154.97	2.56E-01
815.919	155.03	2.53E-01
816.224	155.09	2.52E-01
816.528	155.15	2.50E-01
816.822	155.21	2.48E-01
817.119	155.27	2.46E-01
817.421	155.33	2.44E-01
817.724	155.39	2.42E-01
818.033	155.45	2.39E-01
818.324	155.51	2.38E-01
818.628	155.57	2.35E-01
818.917	155.63	2.34E-01
819.217	155.69	2.33E-01
819.522	155.75	2.30E-01
819.822	155.81	2.28E-01
820.125	155.87	2.26E-01
820.422	155.93	2.24E-01
820.72	155.99	2.22E-01
821.027	156.05	2.19E-01
821.319	156.11	2.18E-01
821.617	156.17	2.16E-01
821.921	156.23	2.14E-01
822.217	156.29	2.11E-01
822.524	156.35	2.09E-01
822.822	156.41	2.06E-01
823.121	156.47	2.04E-01
823.418	156.53	2.02E-01
823.728	156.59	1.99E-01
824.022	156.65	1.97E-01
824.315	156.71	1.94E-01
824.625	156.77	1.92E-01
824.917	156.83	1.90E-01
825.226	156.89	1.87E-01
825.526	156.95	1.85E-01
825.821	157.01	1.83E-01
826.118	157.07	1.81E-01
826.418	157.13	1.79E-01
826.724	157.19	1.76E-01
827.014	157.25	1.74E-01
827.321	157.31	1.71E-01
827.617	157.37	1.70E-01
827.919	157.43	1.67E-01
828.215	157.49	1.64E-01
828.519	157.55	1.62E-01
828.815	157.61	1.60E-01
829.109	157.67	1.57E-01
829.415	157.73	1.54E-01
829.71	157.79	1.53E-01
830.01	157.85	1.50E-01
830.302	157.91	1.48E-01
830.615	157.97	1.45E-01
830.912	158.03	1.43E-01
831.208	158.09	1.40E-01
831.508	158.15	1.38E-01
831.811	158.21	1.35E-01
832.11	158.27	1.33E-01
832.421	158.33	1.30E-01
832.71	158.39	1.27E-01
833.015	158.45	1.26E-01
833.317	158.51	1.23E-01
833.62	158.57	1.21E-01
833.926	158.63	1.18E-01
834.212	158.69	1.16E-01
834.519	158.75	1.13E-01
834.809	158.81	1.10E-01
835.115	158.87	1.08E-01
835.413	158.93	1.06E-01
835.717	158.99	1.03E-01
836.012	159.05	1.00E-01
836.298	159.11	9.80E-02
836.61	159.17	9.62E-02
836.906	159.23	9.26E-02
837.206	159.29	9.01E-02
837.508	159.35	8.75E-02
837.813	159.41	8.48E-02
838.116	159.47	8.20E-02
838.411	159.53	7.94E-02
838.717	159.59	7.61E-02
839.009	159.65	7.41E-02
839.31	159.71	7.13E-02
839.609	159.77	6.93E-02
839.911	159.83	6.62E-02
840.202	159.89	6.33E-02
840.505	159.95	6.07E-02
840.807	160.01	5.83E-02
841.115	160.07	5.46E-02
841.398	160.13	5.29E-02
841.701	160.19	4.95E-02
841.999	160.25	4.71E-02
842.295	160.31	4.38E-02
842.605	160.37	4.06E-02
842.9	160.43	3.85E-02
843.209	160.49	3.53E-02
843.496	160.55	3.29E-02
843.807	160.61	2.97E-02
844.103	160.67	2.69E-02
844.393	160.73	2.38E-02
844.702	160.79	2.13E-02
845.001	160.85	1.86E-02
845.292	160.91	1.58E-02
845.6	160.97	1.27E-02
845.905	161.03	1.06E-02
846.206	161.09	6.91E-03
846.488	161.15	3.89E-03
846.795	161.21	1.44E-03
847.096	161.27	-1.79E-03
847.396	161.33	-4.87E-03
847.695	161.39	-7.29E-03
848.003	161.45	-1.08E-02
848.297	161.51	-1.33E-02
848.603	161.57	-1.76E-02
848.906	161.63	-2.03E-02
849.195	161.69	-2.33E-02
849.493	161.75	-2.57E-02
849.791	161.81	-2.90E-02
850.091	161.87	-3.11E-02
850.387	161.93	-3.51E-02
850.696	161.99	-3.84E-02
850.998	162.05	-4.14E-02
851.302	162.11	-4.40E-02
851.589	162.17	-4.80E-02
851.885	162.23	-5.10E-02
852.187	162.29	-5.37E-02
852.49	162.35	-5.67E-02
852.795	162.41	-5.99E-02
853.091	162.47	-6.32E-02
853.393	162.53	-6.64E-02
853.687	162.59	-6.97E-02
853.984	162.65	-7.28E-02
854.292	162.71	-7.61E-02
854.59	162.77	-7.97E-02
854.884	162.83	-8.24E-02
855.179	162.89	-8.60E-02
855.482	162.95	-8.88E-02
855.786	163.01	-9.24E-02
856.081	163.07	-9.58E-02
856.388	163.13	-9.93E-02
856.684	163.19	-1.02E-01
856.982	163.25	-1.06E-01
857.282	163.31	-1.09E-01
857.575	163.37	-1.12E-01
857.881	163.43	-1.16E-01
858.185	163.49	-1.19E-01
858.475	163.55	-1.22E-01
858.776	163.61	-1.26E-01
859.08	163.67	-1.29E-01
859.39	163.73	-1.32E-01
859.67	163.79	-1.35E-01
859.975	163.85	-1.39E-01
860.27	163.91	-1.43E-01
860.575	163.97	-1.46E-01
860.877	164.03	-1.49E-01
861.178	164.09	-1.53E-01
861.486	164.15	-1.56E-01
861.768	164.21	-1.60E-01
862.08	164.27	-1.64E-01
862.369	164.33	-1.67E-01
862.672	164.39	-1.71E-01
862.975	164.45	-1.74E-01
863.272	164.51	-1.77E-01
863.568	164.57	-1.82E-01
863.866	164.63	-1.85E-01
864.18	164.69	-1.88E-01
864.474	164.75	-1.92E-01
864.764	164.81	-1.94E-01
865.059	164.87	-1.97E-01
865.371	164.93	-2.01E-01
865.668	164.99	-2.04E-01
865.97	165.05	-2.07E-01
866.273	165.11	-2.10E-01
866.569	165.17	-2.14E-01
866.855	165.23	-2.17E-01
867.167	165.29	-2.21E-01
867.466	165.35	-2.24E-01
867.757	165.41	-2.27E-01
868.071	165.47	-2.31E-01
868.366	165.53	-2.34E-01
868.669	165.59	-2.38E-01
868.967	165.65	-2.41E-01
869.267	165.71	-2.45E-01
869.574	165.77	-2.49E-01
869.858	165.83	-2.52E-01
870.165	165.89	-2.56E-01
870.465	165.95	-2.59E-01
870.763	166.01	-2.62E-01
871.069	166.07	-2.66E-01
871.372	166.13	-2.70E-01
871.668	166.19	-2.74E-01
871.954	166.25	-2.77E-01
872.268	166.31	-2.81E-01
872.563	166.37	-2.85E-01
872.857	166.43	-2.88E-01
873.155	166.49	-2.92E-01
873.468	166.55	-2.96E-01
873.764	166.61	-2.99E-01
874.066	166.67	-3.03E-01
874.368	166.73	-3.07E-01
874.655	166.79	-3.11E-01
874.964	166.85	-3.15E-01
875.261	166.91	-3.18E-01
875.565	166.97	-3.22E-01
875.868	167.03	-3.26E-01
876.165	167.09	-3.30E-01
876.469	167.15	-3.33E-01
876.76	167.21	-3.37E-01
877.055	167.27	-3.41E-01
877.353	167.33	-3.45E-01
877.658	167.39	-3.49E-01
877.968	167.45	-3.53E-01
878.261	167.51	-3.57E-01
878.557	167.57	-3.61E-01
878.862	167.63	-3.65E-01
879.167	167.69	-3.69E-01
879.466	167.75	-3.73E-01
879.756	167.81	-3.77E-01
880.052	167.87	-3.81E-01
880.355	167.93	-3.84E-01
880.66	167.99	-3.89E-01
880.961	168.05	-3.93E-01
881.254	168.11	-3.96E-01
881.555	168.17	-4.01E-01
881.866	168.23	-4.05E-01
882.148	168.29	-4.09E-01
882.45	168.35	-4.13E-01
882.742	168.41	-4.17E-01
883.057	168.47	-4.20E-01
883.352	168.53	-4.25E-01
883.658	168.59	-4.30E-01
883.959	168.65	-4.34E-01
884.245	168.71	-4.37E-01
884.543	168.77	-4.42E-01
884.846	168.83	-4.46E-01
885.144	168.89	-4.50E-01
885.447	168.95	-4.54E-01
885.753	169.01	-4.59E-01
886.055	169.07	-4.63E-01
886.344	169.13	-4.67E-01
886.645	169.19	-4.72E-01
886.952	169.25	-4.76E-01
887.25	169.31	-4.80E-01
887.539	169.37	-4.84E-01
887.848	169.43	-4.88E-01
888.142	169.49	-4.93E-01
888.449	169.55	-4.97E-01
888.744	169.61	-5.01E-01
889.052	169.67	-5.06E-01
889.354	169.73	-5.10E-01
889.637	169.79	-5.14E-01
889.937	169.85	-5.18E-01
890.238	169.91	-5.23E-01
890.547	169.97	-5.27E-01
890.843	170.03	-5.32E-01
891.14	170.09	-5.36E-01
891.447	170.15	-5.41E-01
891.741	170.21	-5.45E-01
892.045	170.27	-5.49E-01
892.351	170.33	-5.54E-01
892.635	170.39	-5.58E-01
892.945	170.45	-5.63E-01
893.239	170.51	-5.67E-01
893.55	170.57	-5.72E-01
893.838	170.63	-5.76E-01
894.148	170.69	-5.81E-01
894.446	170.75	-5.85E-01
894.733	170.81	-5.90E-01
895.036	170.87	-5.94E-01
895.342	170.93	-5.99E-01
895.639	170.99	-6.04E-01
895.947	171.05	-6.09E-01
896.251	171.11	-6.13E-01
896.543	171.17	-6.18E-01
896.843	171.23	-6.22E-01
897.142	171.29	-6.27E-01
897.452	171.35	-6.31E-01
897.743	171.41	-6.36E-01
898.043	171.47	-6.41E-01
898.336	171.53	-6.45E-01
898.639	171.59	-6.50E-01
898.938	171.65	-6.55E-01
899.233	171.71	-6.59E-01
899.544	171.77	-6.65E-01
899.829	171.83	-6.69E-01
900.141	171.89	-6.74E-01
900.433	171.95	-6.79E-01
900.735	172.01	-6.84E-01
901.041	172.07	-6.88E-01
901.334	172.13	-6.94E-01
901.649	172.19	-6.98E-01
901.945	172.25	-7.03E-01
902.232	172.31	-7.07E-01
902.534	172.37	-7.13E-01
902.834	172.43	-7.17E-01
903.133	172.49	-7.22E-01
903.439	172.55	-7.27E-01
903.74	172.61	-7.32E-01
904.034	172.67	-7.37E-01
904.338	172.73	-7.41E-01
904.638	172.79	-7.47E-01
904.935	172.85	-7.52E-01
905.233	172.91	-7.57E-01
905.532	172.97	-7.62E-01
905.831	173.03	-7.67E-01
906.132	173.09	-7.72E-01
906.424	173.15	-7.76E-01
906.73	173.21	-7.82E-01
907.027	173.27	-7.87E-01
907.333	173.33	-7.92E-01
907.626	173.39	-7.97E-01
907.93	173.45	-8.02E-01
908.232	173.51	-8.07E-01
908.543	173.57	-8.12E-01
908.835	173.63	-8.17E-01
909.143	173.69	-8.22E-01
909.439	173.75	-8.28E-01
909.734	173.81	-8.33E-01
910.03	173.87	-8.38E-01
910.327	173.93	-8.43E-01
910.631	173.99	-8.48E-01
910.925	174.05	-8.53E-01
911.225	174.11	-8.59E-01
911.53	174.17	-8.63E-01
911.827	174.23	-8.69E-01
912.123	174.29	-8.75E-01
912.43	174.35	-8.80E-01
912.719	174.41	-8.84E-01
913.025	174.47	-8.90E-01
913.335	174.53	-8.95E-01
913.625	174.59	-9.00E-01
913.933	174.65	-9.06E-01
914.23	174.71	-9.11E-01
914.529	174.77	-9.17E-01
914.829	174.83	-9.21E-01
915.124	174.89	-9.27E-01
915.425	174.95	-9.32E-01
915.719	175.01	-9.38E-01
916.023	175.07	-9.43E-01
916.33	175.13	-9.48E-01
916.63	175.19	-9.54E-01
916.936	175.25	-9.59E-01
917.22	175.31	-9.65E-01
917.522	175.37	-9.70E-01
917.828	175.43	-9.76E-01
918.122	175.49	-9.81E-01
918.43	175.55	-9.87E-01
918.725	175.61	-9.92E-01
919.022	175.67	-9.98E-01
919.326	175.73	-1.00E+00
919.618	175.79	-1.01E+00
919.918	175.85	-1.01E+00
920.218	175.91	-1.02E+00
920.526	175.97	-1.02E+00
920.823	176.03	-1.03E+00
921.127	176.09	-1.04E+00
921.425	176.15	-1.04E+00
921.735	176.21	-1.05E+00
922.025	176.27	-1.05E+00
922.314	176.33	-1.06E+00
922.628	176.39	-1.06E+00
922.924	176.45	-1.07E+00
923.229	176.51	-1.08E+00
923.531	176.57	-1.08E+00
923.821	176.63	-1.09E+00
924.127	176.69	-1.09E+00
924.418	176.75	-1.10E+00
924.717	176.81	-1.10E+00
925.022	176.87	-1.11E+00
925.318	176.93	-1.12E+00
925.619	176.99	-1.12E+00
925.933	177.05	-1.13E+00
926.222	177.11	-1.13E+00
926.524	177.17	-1.14E+00
926.826	177.23	-1.15E+00
927.122	177.29	-1.15E+00
927.42	177.35	-1.16E+00
927.726	177.41	-1.16E+00
928.015	177.47	-1.17E+00
928.323	177.53	-1.17E+00
928.625	177.59	-1.18E+00
928.919	177.65	-1.19E+00
929.215	177.71	-1.19E+00
929.51	177.77	-1.20E+00
929.807	177.83	-1.20E+00
930.11	177.89	-1.21E+00
930.412	177.95	-1.21E+00
930.707	178.01	-1.22E+00
931.015	178.07	-1.23E+00
931.316	178.13	-1.23E+00
931.617	178.19	-1.24E+00
931.916	178.25	-1.24E+00
932.209	178.31	-1.25E+00
932.496	178.37	-1.26E+00
932.803	178.43	-1.26E+00
933.111	178.49	-1.27E+00
933.404	178.55	-1.27E+00
933.713	178.61	-1.28E+00
934.02	178.67	-1.29E+00
934.321	178.73	-1.29E+00
934.609	178.79	-1.30E+00
934.908	178.85	-1.30E+00
935.201	178.91	-1.31E+00
935.502	178.97	-1.32E+00
935.809	179.03	-1.32E+00
936.112	179.09	-1.33E+00
936.408	179.15	-1.33E+00
936.7	179.21	-1.34E+00
936.996	179.27	-1.35E+00
937.3	179.33	-1.35E+00
937.6	179.39	-1.36E+00
937.899	179.45	-1.37E+00
938.205	179.51	-1.37E+00
938.493	179.57	-1.38E+00
938.804	179.63	-1.38E+00
939.104	179.69	-1.39E+00
939.408	179.75	-1.40E+00
939.704	179.81	-1.40E+00
940.003	179.87	-1.41E+00
940.302	179.93	-1.41E+00
940.601	179.99	-1.42E+00
940.904	180.05	-1.43E+00
941.199	180.11	-1.43E+00
941.498	180.17	-1.44E+00
941.8	180.23	-1.45E+00
942.103	180.29	-1.45E+00
942.395	180.35	-1.46E+00
942.694	180.41	-1.46E+00
943	180.47	-1.47E+00
943.305	180.53	-1.48E+00
943.594	180.59	-1.48E+00
943.889	180.65	-1.49E+00
944.19	180.71	-1.50E+00
944.5	180.77	-1.50E+00
944.784	180.83	-1.51E+00
945.093	180.89	-1.51E+00
945.398	180.95	-1.52E+00
945.691	181.01	-1.53E+00
945.981	181.07	-1.53E+00
946.311	181.13	-1.54E+00
946.585	181.19	-1.55E+00
946.884	181.25	-1.55E+00
947.192	181.31	-1.56E+00
947.491	181.37	-1.57E+00
947.788	181.43	-1.57E+00
948.093	181.49	-1.58E+00
948.387	181.55	-1.58E+00
948.689	181.61	-1.59E+00
948.979	181.67	-1.60E+00
949.288	181.73	-1.60E+00
949.587	181.79	-1.61E+00
949.891	181.85	-1.62E+00
950.185	181.91	-1.62E+00
950.493	181.97	-1.63E+00
950.796	182.03	-1.64E+00
951.088	182.09	-1.64E+00
951.393	182.15	-1.65E+00
951.695	182.21	-1.66E+00
951.99	182.27	-1.66E+00
952.279	182.33	-1.67E+00
952.591	182.39	-1.68E+00
952.891	182.45	-1.68E+00
953.19	182.51	-1.69E+00
953.486	182.57	-1.70E+00
953.792	182.63	-1.70E+00
954.074	182.69	-1.71E+00
954.379	182.75	-1.71E+00
954.687	182.81	-1.72E+00
954.978	182.87	-1.73E+00
955.288	182.93	-1.73E+00
955.587	182.99	-1.74E+00
955.878	183.05	-1.75E+00
956.167	183.11	-1.75E+00
956.472	183.17	-1.76E+00
956.776	183.23	-1.77E+00
957.075	183.29	-1.77E+00
957.375	183.35	-1.78E+00
957.679	183.41	-1.79E+00
957.975	183.47	-1.80E+00
958.279	183.53	-1.80E+00
958.576	183.59	-1.81E+00
958.872	183.65	-1.81E+00
959.169	183.71	-1.82E+00
959.476	183.77	-1.83E+00
959.77	183.83	-1.83E+00
960.069	183.89	-1.84E+00
960.372	183.95	-1.85E+00
960.673	184.01	-1.86E+00
960.973	184.07	-1.86E+00
961.261	184.13	-1.87E+00
961.568	184.19	-1.88E+00
961.871	184.25	-1.88E+00
962.17	184.31	-1.89E+00
962.472	184.37	-1.90E+00
962.781	184.43	-1.90E+00
963.077	184.49	-1.91E+00
963.358	184.55	-1.92E+00
963.673	184.61	-1.92E+00
963.966	184.67	-1.93E+00
964.27	184.73	-1.94E+00
964.575	184.79	-1.94E+00
964.873	184.85	-1.95E+00
965.167	184.91	-1.96E+00
965.477	184.97	-1.97E+00
965.781	185.03	-1.97E+00
966.068	185.09	-1.98E+00
966.359	185.15	-1.99E+00
966.667	185.21	-1.99E+00
966.97	185.27	-2.00E+00
967.257	185.33	-2.01E+00
967.568	185.39	-2.01E+00
967.861	185.45	-2.02E+00
968.158	185.51	-2.03E+00
968.453	185.57	-2.04E+00
968.766	185.63	-2.04E+00
969.059	185.69	-2.05E+00
969.361	185.75	-2.06E+00
969.665	185.81	-2.07E+00
969.959	185.87	-2.07E+00
970.261	185.93	-2.08E+00
970.568	185.99	-2.09E+00
970.872	186.05	-2.09E+00
971.151	186.11	-2.10E+00
971.455	186.17	-2.11E+00
971.754	186.23	-2.12E+00
972.07	186.29	-2.12E+00
972.36	186.35	-2.13E+00
972.66	186.41	-2.14E+00
972.964	186.47	-2.15E+00
973.271	186.53	-2.15E+00
973.548	186.59	-2.16E+00
973.856	186.65	-2.17E+00
974.16	186.71	-2.18E+00
974.463	186.77	-2.18E+00
974.762	186.83	-2.19E+00
975.07	186.89	-2.20E+00
975.363	186.95	-2.21E+00
975.651	187.01	-2.21E+00
975.96	187.07	-2.22E+00
976.256	187.13	-2.23E+00
976.557	187.19	-2.24E+00
976.864	187.25	-2.24E+00
977.167	187.31	-2.25E+00
977.462	187.37	-2.26E+00
977.766	187.43	-2.27E+00
978.066	187.49	-2.28E+00
978.367	187.55	-2.28E+00
978.65	187.61	-2.29E+00
978.959	187.67	-2.30E+00
979.255	187.73	-2.31E+00
979.561	187.79	-2.32E+00
979.869	187.85	-2.32E+00
980.17	187.91	-2.33E+00
980.456	187.97	-2.34E+00
980.743	188.03	-2.35E+00
981.052	188.09	-2.36E+00
981.35	188.15	-2.36E+00
981.651	188.21	-2.37E+00
981.954	188.27	-2.38E+00
982.258	188.33	-2.39E+00
982.555	188.39	-2.40E+00
982.847	188.45	-2.40E+00
983.154	188.51	-2.41E+00
983.453	188.57	-2.42E+00
983.748	188.63	-2.43E+00
984.064	188.69	-2.44E+00
984.352	188.75	-2.44E+00
984.658	188.81	-2.45E+00
984.962	188.87	-2.46E+00
985.267	188.93	-2.47E+00
985.555	188.99	-2.48E+00
985.85	189.05	-2.49E+00
986.151	189.11	-2.49E+00
986.457	189.17	-2.50E+00
986.749	189.23	-2.51E+00
987.06	189.29	-2.52E+00
987.361	189.35	-2.53E+00
987.658	189.41	-2.54E+00
987.962	189.47	-2.54E+00
988.246	189.53	-2.55E+00
988.556	189.59	-2.56E+00
988.85	189.65	-2.57E+00
989.146	189.71	-2.58E+00
989.457	189.77	-2.59E+00
989.751	189.83	-2.59E+00
990.053	189.89	-2.60E+00
990.352	189.95	-2.61E+00
990.652	190.01	-2.62E+00
990.954	190.07	-2.63E+00
991.26	190.13	-2.64E+00
991.552	190.19	-2.65E+00
991.852	190.25	-2.65E+00
992.158	190.31	-2.66E+00
992.459	190.37	-2.67E+00
992.758	190.43	-2.68E+00
993.067	190.49	-2.69E+00
993.342	190.55	-2.70E+00
993.654	190.61	-2.71E+00
993.949	190.67	-2.71E+00
994.257	190.73	-2.72E+00
994.558	190.79	-2.73E+00
994.867	190.85	-2.74E+00
995.156	190.91	-2.75E+00
995.451	190.97	-2.76E+00
995.761	191.03	-2.77E+00
996.048	191.09	-2.78E+00
996.358	191.15	-2.78E+00
996.653	191.21	-2.79E+00
996.951	191.27	-2.80E+00
997.263	191.33	-2.81E+00
997.559	191.39	-2.82E+00
997.845	191.45	-2.83E+00
998.153	191.51	-2.84E+00
998.45	191.57	-2.84E+00
998.754	191.63	-2.85E+00
999.051	191.69	-2.86E+00
999.365	191.75	-2.87E+00
999.659	191.81	-2.88E+00
999.964	191.87	-2.89E+00
1000.27	191.93	-2.90E+00
1000.55	191.99	-2.91E+00
1000.85	192.05	-2.91E+00
1001.15	192.11	-2.92E+00
1001.46	192.17	-2.93E+00
1001.76	192.23	-2.94E+00
1002.06	192.29	-2.95E+00
1002.35	192.35	-2.96E+00
1002.64	192.41	-2.97E+00
1002.95	192.47	-2.98E+00
1003.24	192.53	-2.99E+00
1003.54	192.59	-3.00E+00
1003.85	192.65	-3.00E+00
1004.16	192.71	-3.01E+00
1004.46	192.77	-3.02E+00
1004.75	192.83	-3.03E+00
1005.04	192.89	-3.04E+00
1005.35	192.95	-3.05E+00
1005.65	193.01	-3.06E+00
1005.95	193.07	-3.07E+00
1006.25	193.13	-3.08E+00
1006.56	193.19	-3.09E+00
1006.854	193.25	-3.09E+00
1007.16	193.31	-3.10E+00
1007.46	193.37	-3.11E+00
1007.74	193.43	-3.12E+00
1008.05	193.49	-3.13E+00
1008.34	193.55	-3.14E+00
1008.65	193.61	-3.15E+00
1008.95	193.67	-3.16E+00
1009.25	193.73	-3.17E+00
1009.547	193.79	-3.18E+00
1009.84	193.85	-3.19E+00
1010.146	193.91	-3.20E+00
1010.45	193.97	-3.21E+00
1010.75	194.03	-3.22E+00
1011.05	194.09	-3.23E+00
1011.354	194.15	-3.24E+00
1011.66	194.21	-3.25E+00
1011.94	194.27	-3.25E+00
1012.24	194.33	-3.26E+00
1012.54	194.39	-3.27E+00
1012.85	194.45	-3.28E+00
1013.151	194.51	-3.29E+00
1013.45	194.57	-3.30E+00
1013.75	194.63	-3.31E+00
1014.047	194.69	-3.32E+00
1014.354	194.75	-3.33E+00
1014.66	194.81	-3.34E+00
1014.95	194.87	-3.35E+00
1015.255	194.93	-3.36E+00
1015.54	194.99	-3.37E+00
1015.85	195.05	-3.38E+00
1016.16	195.11	-3.39E+00
1016.45	195.17	-3.40E+00
1016.76	195.23	-3.41E+00
1017.04	195.29	-3.42E+00
1017.35	195.35	-3.43E+00
1017.65	195.41	-3.44E+00
1017.95	195.47	-3.45E+00
1018.26	195.53	-3.46E+00
1018.55	195.59	-3.47E+00
1018.85	195.65	-3.48E+00
1019.14	195.71	-3.49E+00
1019.44	195.77	-3.50E+00
1019.742	195.83	-3.51E+00
1020.04	195.89	-3.52E+00
1020.34	195.95	-3.53E+00
1020.651	196.01	-3.54E+00
1020.94	196.07	-3.55E+00
1021.25	196.13	-3.56E+00
1021.547	196.19	-3.57E+00
1021.84	196.25	-3.58E+00
1022.14	196.31	-3.59E+00
1022.44	196.37	-3.59E+00
1022.74	196.43	-3.61E+00
1023.05	196.49	-3.62E+00
1023.354	196.55	-3.63E+00
1023.66	196.61	-3.64E+00
1023.96	196.67	-3.65E+00
1024.24	196.73	-3.66E+00
1024.552	196.79	-3.67E+00
1024.84	196.85	-3.68E+00
1025.14	196.91	-3.69E+00
1025.45	196.97	-3.70E+00
1025.75	197.03	-3.71E+00
1026.047	197.09	-3.72E+00
1026.34	197.15	-3.73E+00
1026.65	197.21	-3.74E+00
1026.94	197.27	-3.75E+00
1027.24	197.33	-3.76E+00
1027.54	197.39	-3.77E+00
1027.84	197.45	-3.78E+00
1028.14	197.51	-3.79E+00
1028.45	197.57	-3.80E+00
1028.75	197.63	-3.81E+00
1029.03	197.69	-3.82E+00
1029.33	197.75	-3.83E+00
1029.64	197.81	-3.84E+00
1029.94	197.87	-3.85E+00
1030.24	197.93	-3.86E+00
1030.547	197.99	-3.87E+00
1030.85	198.05	-3.88E+00
1031.14	198.11	-3.89E+00
1031.44	198.17	-3.90E+00
1031.74	198.23	-3.91E+00
1032.04	198.29	-3.92E+00
1032.34	198.35	-3.93E+00
1032.65	198.41	-3.94E+00
1032.94	198.47	-3.95E+00
1033.24	198.53	-3.96E+00
1033.54	198.59	-3.97E+00
1033.84	198.65	-3.98E+00
1034.146	198.71	-4.00E+00
1034.448	198.77	-4.01E+00
1034.74	198.83	-4.02E+00
1035.04	198.89	-4.03E+00
1035.35	198.95	-4.04E+00
1035.65	199.01	-4.05E+00
1035.94	199.07	-4.06E+00
1036.23	199.13	-4.07E+00
1036.54	199.19	-4.08E+00
1036.84	199.25	-4.09E+00
1037.14	199.31	-4.10E+00
1037.44	199.37	-4.11E+00
1037.74	199.43	-4.12E+00
1038.05	199.49	-4.13E+00
1038.35	199.55	-4.14E+00
1038.63	199.61	-4.15E+00
1038.93	199.67	-4.16E+00
1039.23	199.73	-4.17E+00
1039.53	199.79	-4.18E+00
1039.84	199.85	-4.20E+00
1040.13	199.91	-4.21E+00
1040.45	199.97	-4.22E+00
1040.73	200.03	-4.23E+00
1041.04	200.09	-4.24E+00
1041.33	200.15	-4.25E+00
1041.64	200.21	-4.26E+00
1041.93	200.27	-4.27E+00
1042.23	200.33	-4.28E+00
1042.54	200.39	-4.29E+00
1042.83	200.45	-4.30E+00
1043.13	200.51	-4.31E+00
1043.427	200.57	-4.32E+00
1043.73	200.63	-4.33E+00
1044.03	200.69	-4.34E+00
1044.328	200.75	-4.35E+00
1044.63	200.81	-4.37E+00
1044.94	200.87	-4.38E+00
1045.24	200.93	-4.39E+00
1045.54	200.99	-4.40E+00
1045.83	201.05	-4.41E+00
1046.12	201.11	-4.42E+00
1046.43	201.17	-4.43E+00
1046.74	201.23	-4.44E+00
1047.03	201.29	-4.45E+00
1047.33	201.35	-4.46E+00
1047.63	201.41	-4.47E+00
1047.92	201.47	-4.48E+00
1048.23	201.53	-4.50E+00
1048.52	201.59	-4.51E+00
1048.82	201.65	-4.52E+00
1049.13	201.71	-4.53E+00
1049.44	201.77	-4.54E+00
1049.73	201.83	-4.55E+00
1050.02	201.89	-4.56E+00
1050.32	201.95	-4.57E+00
1050.62	202.01	-4.58E+00
1050.93	202.07	-4.59E+00
1051.23	202.13	-4.60E+00
1051.52	202.19	-4.61E+00
1051.823	202.25	-4.62E+00
1052.11	202.31	-4.64E+00
1052.42	202.37	-4.65E+00
1052.72	202.43	-4.66E+00
1053.02	202.49	-4.67E+00
1053.33	202.55	-4.68E+00
1053.62	202.61	-4.69E+00
1053.93	202.67	-4.70E+00
1054.22	202.73	-4.71E+00
1054.53	202.79	-4.72E+00
1054.828	202.85	-4.73E+00
1055.11	202.91	-4.74E+00
1055.42	202.97	-4.75E+00
1055.729	203.03	-4.76E+00
1056.02	203.09	-4.78E+00
1056.323	203.15	-4.79E+00
1056.62	203.21	-4.80E+00
1056.92	203.27	-4.81E+00
1057.21	203.33	-4.82E+00
1057.521	203.39	-4.83E+00
1057.81	203.45	-4.84E+00
1058.11	203.51	-4.85E+00
1058.422	203.57	-4.86E+00
1058.72	203.63	-4.87E+00
1059.01	203.69	-4.88E+00
1059.31	203.75	-4.90E+00
1059.62	203.81	-4.91E+00
1059.91	203.87	-4.92E+00
1060.21	203.93	-4.93E+00
1060.52	203.99	-4.94E+00
1060.82	204.05	-4.95E+00
1061.11	204.11	-4.96E+00
1061.42	204.17	-4.97E+00
1061.71	204.23	-4.98E+00
1062.01	204.29	-4.99E+00
1062.302	204.35	-5.00E+00
1062.62	204.41	-5.01E+00
1062.91	204.47	-5.03E+00
1063.21	204.53	-5.04E+00
1063.52	204.59	-5.05E+00
1063.81	204.65	-5.06E+00
1064.11	204.71	-5.07E+00
1064.41	204.77	-5.08E+00
1064.71	204.83	-5.09E+00
1065	204.89	-5.10E+00
1065.3	204.95	-5.11E+00
1065.61	205.01	-5.12E+00
1065.91	205.07	-5.13E+00
1066.21	205.13	-5.15E+00
1066.5	205.19	-5.16E+00
1066.81	205.25	-5.17E+00
1067.11	205.31	-5.18E+00
1067.41	205.37	-5.19E+00
1067.71	205.43	-5.20E+00
1068.02	205.49	-5.21E+00
1068.31	205.55	-5.22E+00
1068.61	205.61	-5.23E+00
1068.91	205.67	-5.24E+00
1069.21	205.73	-5.25E+00
1069.5	205.79	-5.26E+00
1069.81	205.85	-5.27E+00
1070.11	205.91	-5.29E+00
1070.41	205.97	-5.30E+00
1070.72	206.03	-5.31E+00
1071.02	206.09	-5.32E+00
1071.3	206.15	-5.33E+00
1071.599	206.21	-5.34E+00
1071.91	206.27	-5.35E+00
1072.21	206.33	-5.36E+00
1072.51	206.39	-5.37E+00
1072.81	206.45	-5.38E+00
1073.11	206.51	-5.40E+00
1073.41	206.57	-5.40E+00
1073.7	206.63	-5.42E+00
1074	206.69	-5.43E+00
1074.3	206.75	-5.44E+00
1074.6	206.81	-5.45E+00
1074.91	206.87	-5.46E+00
1075.21	206.93	-5.47E+00
1075.5	206.99	-5.48E+00
1075.802	207.05	-5.49E+00
1076.09	207.11	-5.50E+00
1076.4	207.17	-5.51E+00
1076.7	207.23	-5.53E+00
1077.01	207.29	-5.54E+00
1077.31	207.35	-5.55E+00
1077.6	207.41	-5.56E+00
1077.9	207.47	-5.57E+00
1078.203	207.53	-5.58E+00
1078.5	207.59	-5.59E+00
1078.79	207.65	-5.61E+00
1079.09	207.71	-5.61E+00
1079.4	207.77	-5.63E+00
1079.698	207.83	-5.64E+00
1080.005	207.89	-5.65E+00
1080.29	207.95	-5.66E+00
1080.6	208.01	-5.67E+00
1080.901	208.07	-5.68E+00
1081.21	208.13	-5.69E+00
1081.51	208.19	-5.70E+00
1081.8	208.25	-5.72E+00
1082.11	208.31	-5.73E+00
1082.41	208.37	-5.74E+00
1082.7	208.43	-5.75E+00
1082.99	208.49	-5.76E+00
1083.31	208.55	-5.77E+00
1083.59	208.61	-5.78E+00
1083.91	208.67	-5.79E+00
1084.2	208.73	-5.80E+00
1084.5	208.79	-5.81E+00
1084.8	208.85	-5.83E+00
1085.09	208.91	-5.84E+00
1085.4	208.97	-5.85E+00
1085.7	209.03	-5.86E+00
1086	209.09	-5.87E+00
1086.3	209.15	-5.88E+00
1086.61	209.21	-5.89E+00
1086.9	209.27	-5.90E+00
1087.19	209.33	-5.92E+00
1087.49	209.39	-5.93E+00
1087.79	209.45	-5.94E+00
1088.09	209.51	-5.95E+00
1088.39	209.57	-5.96E+00
1088.7	209.63	-5.97E+00
1089	209.69	-5.98E+00
1089.3	209.75	-5.99E+00
1089.61	209.81	-6.00E+00
1089.89	209.87	-6.02E+00
1090.19	209.93	-6.03E+00
1090.5	209.99	-6.04E+00
1090.8	210.05	-6.05E+00
1091.09	210.11	-6.06E+00
1091.396	210.17	-6.07E+00
1091.698	210.23	-6.08E+00
1092	210.29	-6.09E+00
1092.31	210.35	-6.11E+00
1092.599	210.41	-6.12E+00
1092.901	210.47	-6.13E+00
1093.2	210.53	-6.14E+00
1093.5	210.59	-6.15E+00
1093.8	210.65	-6.16E+00
1094.11	210.71	-6.17E+00
1094.41	210.77	-6.18E+00
1094.7	210.83	-6.20E+00
1095	210.89	-6.21E+00
1095.29	210.95	-6.22E+00
1095.6	211.01	-6.23E+00
1095.9	211.07	-6.24E+00
1096.19	211.13	-6.25E+00
1096.5	211.19	-6.26E+00
1096.79	211.25	-6.28E+00
1097.09	211.31	-6.29E+00
1097.39	211.37	-6.30E+00
1097.69	211.43	-6.31E+00
1098	211.49	-6.32E+00
1098.3	211.55	-6.33E+00
1098.59	211.61	-6.34E+00
1098.9	211.67	-6.35E+00
1099.19	211.73	-6.36E+00
1099.479	211.79	-6.38E+00
1099.79	211.85	-6.39E+00
1100.09	211.91	-6.40E+00
1100.39	211.97	-6.41E+00
1100.69	212.03	-6.42E+00
1100.99	212.09	-6.43E+00
1101.29	212.15	-6.44E+00
1101.59	212.21	-6.45E+00
1101.88	212.27	-6.47E+00
1102.19	212.33	-6.48E+00
1102.49	212.39	-6.49E+00
1102.79	212.45	-6.50E+00
1103.09	212.51	-6.51E+00
1103.39	212.57	-6.52E+00
1103.698	212.63	-6.53E+00
1103.98	212.69	-6.55E+00
1104.29	212.75	-6.56E+00
1104.58	212.81	-6.57E+00
1104.89	212.87	-6.58E+00
1105.19	212.93	-6.59E+00
1105.49	212.99	-6.60E+00
1105.79	213.05	-6.61E+00
1106.08	213.11	-6.63E+00
1106.38	213.17	-6.63E+00
1106.677	213.23	-6.65E+00
1106.99	213.29	-6.66E+00
1107.29	213.35	-6.67E+00
1107.59	213.41	-6.68E+00
1107.88	213.47	-6.69E+00
1108.18	213.53	-6.70E+00
1108.479	213.59	-6.71E+00
1108.79	213.65	-6.72E+00
1109.08	213.71	-6.74E+00
1109.39	213.77	-6.75E+00
1109.69	213.83	-6.76E+00
1109.99	213.89	-6.77E+00
1110.29	213.95	-6.78E+00
1110.59	214.01	-6.79E+00
1110.88	214.07	-6.80E+00
1111.19	214.13	-6.81E+00
1111.47	214.19	-6.83E+00
1111.78	214.25	-6.84E+00
1112.078	214.31	-6.85E+00
1112.39	214.37	-6.86E+00
1112.7	214.43	-6.87E+00
1112.99	214.49	-6.88E+00
1113.28	214.55	-6.89E+00
1113.59	214.61	-6.90E+00
1113.88	214.67	-6.92E+00
1114.18	214.73	-6.93E+00
1114.49	214.79	-6.94E+00
1114.79	214.85	-6.95E+00
1115.09	214.91	-6.96E+00
1115.39	214.97	-6.97E+00
1115.69	215.03	-6.98E+00
1115.98	215.09	-6.99E+00
1116.28	215.15	-7.00E+00
1116.59	215.21	-7.01E+00
1116.89	215.27	-7.02E+00
1117.19	215.33	-7.04E+00
1117.47	215.39	-7.05E+00
1117.78	215.45	-7.06E+00
1118.08	215.51	-7.07E+00
1118.38	215.57	-7.08E+00
1118.69	215.63	-7.09E+00
1118.99	215.69	-7.10E+00
1119.28	215.75	-7.11E+00
1119.57	215.81	-7.13E+00
1119.875	215.87	-7.14E+00
1120.18	215.93	-7.15E+00
1120.474	215.99	-7.16E+00
1120.77	216.05	-7.17E+00
1121.08	216.11	-7.18E+00
1121.38	216.17	-7.19E+00
1121.69	216.23	-7.20E+00
1121.99	216.29	-7.21E+00
1122.27	216.35	-7.23E+00
1122.58	216.41	-7.24E+00
1122.88	216.47	-7.25E+00
1123.18	216.53	-7.26E+00
1123.47	216.59	-7.27E+00
1123.78	216.65	-7.28E+00
1124.08	216.71	-7.29E+00
1124.39	216.77	-7.30E+00
1124.68	216.83	-7.31E+00
1124.97	216.89	-7.32E+00
1125.28	216.95	-7.33E+00
1125.58	217.01	-7.35E+00
1125.89	217.07	-7.36E+00
1126.19	217.13	-7.37E+00
1126.48	217.19	-7.38E+00
1126.76	217.25	-7.39E+00
1127.08	217.31	-7.40E+00
1127.37	217.37	-7.41E+00
1127.672	217.43	-7.42E+00
1127.98	217.49	-7.43E+00
1128.28	217.55	-7.45E+00
1128.58	217.61	-7.46E+00
1128.87	217.67	-7.47E+00
1129.17	217.73	-7.48E+00
1129.46	217.79	-7.49E+00
1129.77	217.85	-7.50E+00
1130.08	217.91	-7.51E+00
1130.37	217.97	-7.52E+00
1130.68	218.03	-7.53E+00
1130.98	218.09	-7.54E+00
1131.26	218.15	-7.55E+00
1131.57	218.21	-7.56E+00
1131.86	218.27	-7.58E+00
1132.17	218.33	-7.59E+00
1132.47	218.39	-7.60E+00
1132.76	218.45	-7.61E+00
1133.07	218.51	-7.62E+00
1133.375	218.57	-7.63E+00
1133.69	218.63	-7.64E+00
1133.98	218.69	-7.65E+00
1134.27	218.75	-7.66E+00
1134.57	218.81	-7.67E+00
1134.875	218.87	-7.68E+00
1135.17	218.93	-7.69E+00
1135.47	218.99	-7.70E+00
1135.78	219.05	-7.72E+00
1136.06	219.11	-7.72E+00
1136.37	219.17	-7.74E+00
1136.67	219.23	-7.75E+00
1136.98	219.29	-7.75E+00
1137.28	219.35	-7.77E+00
1137.59	219.41	-7.78E+00
1137.88	219.47	-7.78E+00
1138.17	219.53	-7.80E+00
1138.47	219.59	-7.81E+00
1138.76	219.65	-7.82E+00
1139.08	219.71	-7.83E+00
1139.38	219.77	-7.84E+00
1139.68	219.83	-7.85E+00
1139.97	219.89	-7.86E+00
1140.26	219.95	-7.87E+00
1140.56	220.01	-7.88E+00
1140.86	220.07	-7.89E+00
1141.17	220.13	-7.90E+00
1141.48	220.19	-7.91E+00
1141.76	220.25	-7.92E+00
1142.07	220.31	-7.94E+00
1142.37	220.37	-7.95E+00
1142.66	220.43	-7.95E+00
1142.96	220.49	-7.97E+00
1143.26	220.55	-7.98E+00
1143.56	220.61	-7.98E+00
1143.86	220.67	-8.00E+00
1144.17	220.73	-8.01E+00
1144.47	220.79	-8.02E+00
1144.78	220.85	-8.03E+00
1145.07	220.91	-8.04E+00
1145.36	220.97	-8.04E+00
1145.67	221.03	-8.05E+00
1145.97	221.09	-8.06E+00
1146.271	221.15	-8.07E+00
1146.57	221.21	-8.09E+00
1146.86	221.27	-8.09E+00
1147.17	221.33	-8.11E+00
1147.46	221.39	-8.12E+00
1147.76	221.45	-8.12E+00
1148.07	221.51	-8.14E+00
1148.37	221.57	-8.14E+00
1148.67	221.63	-8.16E+00
1148.97	221.69	-8.16E+00
1149.27	221.75	-8.18E+00
1149.55	221.81	-8.18E+00
1149.86	221.87	-8.20E+00
1150.16	221.93	-8.20E+00
1150.46	221.99	-8.21E+00
1150.77	222.05	-8.22E+00
1151.07	222.11	-8.23E+00
1151.37	222.17	-8.24E+00
1151.66	222.23	-8.25E+00
1151.96	222.29	-8.26E+00
1152.25	222.35	-8.27E+00
1152.56	222.41	-8.28E+00
1152.86	222.47	-8.29E+00
1153.17	222.53	-8.30E+00
1153.46	222.59	-8.31E+00
1153.75	222.65	-8.32E+00
1154.05	222.71	-8.33E+00
1154.35	222.77	-8.34E+00
1154.66	222.83	-8.35E+00
1154.97	222.89	-8.36E+00
1155.28	222.95	-8.36E+00
1155.573	223.01	-8.37E+00
1155.87	223.07	-8.38E+00
1156.16	223.13	-8.39E+00
1156.46	223.19	-8.40E+00
1156.77	223.25	-8.41E+00
1157.06	223.31	-8.42E+00
1157.37	223.37	-8.43E+00
1157.67	223.43	-8.44E+00
1157.97	223.49	-8.44E+00
1158.26	223.55	-8.45E+00
1158.57	223.61	-8.46E+00
1158.85	223.67	-8.48E+00
1159.17	223.73	-8.48E+00
1159.47	223.79	-8.49E+00
1159.76	223.85	-8.50E+00
1160.07	223.91	-8.51E+00
1160.36	223.97	-8.52E+00
1160.66	224.03	-8.52E+00
1160.95	224.09	-8.54E+00
1161.25	224.15	-8.54E+00
1161.55	224.21	-8.55E+00
1161.86	224.27	-8.56E+00
1162.17	224.33	-8.57E+00
1162.45	224.39	-8.58E+00
1162.76	224.45	-8.59E+00
1163.04	224.51	-8.60E+00
1163.36	224.57	-8.60E+00
1163.65	224.63	-8.61E+00
1163.97	224.69	-8.62E+00
1164.26	224.75	-8.63E+00
1164.57	224.81	-8.64E+00
1164.86	224.87	-8.65E+00
1165.14	224.93	-8.65E+00
1165.46	224.99	-8.66E+00
1165.74	225.05	-8.67E+00
1166.05	225.11	-8.68E+00
1166.354	225.17	-8.69E+00
1166.646	225.23	-8.70E+00
1166.95	225.29	-8.71E+00
1167.24	225.35	-8.72E+00
1167.55	225.41	-8.72E+00
1167.84	225.47	-8.73E+00
1168.14	225.53	-8.74E+00
1168.44	225.59	-8.75E+00
1168.75	225.65	-8.76E+00
1169.06	225.71	-8.76E+00
1169.36	225.77	-8.77E+00
1169.65	225.83	-8.78E+00
1169.94	225.89	-8.79E+00
1170.25	225.95	-8.79E+00
1170.552	226.01	-8.80E+00
1170.84	226.07	-8.81E+00
1171.14	226.13	-8.82E+00
1171.448	226.19	-8.82E+00
1171.75	226.25	-8.83E+00
1172.05	226.31	-8.84E+00
1172.34	226.37	-8.85E+00
1172.65	226.43	-8.86E+00
1172.948	226.49	-8.86E+00
1173.25	226.55	-8.87E+00
1173.54	226.61	-8.88E+00
1173.85	226.67	-8.89E+00
1174.14	226.73	-8.90E+00
1174.44	226.79	-8.90E+00
1174.74	226.85	-8.91E+00
1175.04	226.91	-8.92E+00
1175.33	226.97	-8.93E+00
1175.65	227.03	-8.93E+00
1175.953	227.09	-8.94E+00
1176.24	227.15	-8.95E+00
1176.54	227.21	-8.95E+00
1176.84	227.27	-8.96E+00
1177.14	227.33	-8.97E+00
1177.44	227.39	-8.98E+00
1177.75	227.45	-8.98E+00
1178.05	227.51	-8.99E+00
1178.35	227.57	-8.99E+00
1178.65	227.63	-9.00E+00
1178.94	227.69	-9.01E+00
1179.24	227.75	-9.02E+00
1179.54	227.81	-9.02E+00
1179.86	227.87	-9.03E+00
1180.151	227.93	-9.04E+00
1180.46	227.99	-9.05E+00
1180.76	228.05	-9.05E+00
1181.07	228.11	-9.06E+00
1181.35	228.17	-9.06E+00
1181.65	228.23	-9.07E+00
1181.95	228.29	-9.08E+00
1182.25	228.35	-9.09E+00
1182.55	228.41	-9.09E+00
1182.85	228.47	-9.10E+00
1183.16	228.53	-9.11E+00
1183.46	228.59	-9.11E+00
1183.74	228.65	-9.12E+00
1184.05	228.71	-9.13E+00
1184.35	228.77	-9.14E+00
1184.64	228.83	-9.14E+00
1184.95	228.89	-9.15E+00
1185.26	228.95	-9.16E+00
1185.55	229.01	-9.16E+00
1185.85	229.07	-9.17E+00
1186.15	229.13	-9.18E+00
1186.44	229.19	-9.18E+00
1186.755	229.25	-9.19E+00
1187.06	229.31	-9.19E+00
1187.354	229.37	-9.20E+00
1187.65	229.43	-9.21E+00
1187.953	229.49	-9.21E+00
1188.25	229.55	-9.22E+00
1188.56	229.61	-9.22E+00
1188.86	229.67	-9.23E+00
1189.17	229.73	-9.24E+00
1189.47	229.79	-9.24E+00
1189.76	229.85	-9.25E+00
1190.06	229.91	-9.26E+00
1190.36	229.97	-9.26E+00
1190.66	230.03	-9.27E+00
1190.96	230.09	-9.28E+00
1191.27	230.15	-9.28E+00
1191.56	230.21	-9.29E+00
1191.854	230.27	-9.29E+00
1192.16	230.33	-9.30E+00
1192.45	230.39	-9.31E+00
1192.75	230.45	-9.31E+00
1193.04	230.51	-9.32E+00
1193.36	230.57	-9.32E+00
1193.651	230.63	-9.33E+00
1193.96	230.69	-9.34E+00
1194.24	230.75	-9.34E+00
1194.55	230.81	-9.35E+00
1194.85	230.87	-9.35E+00
1195.16	230.93	-9.36E+00
1195.46	230.99	-9.36E+00
1195.76	231.05	-9.37E+00
1196.07	231.11	-9.38E+00
1196.36	231.17	-9.38E+00
1196.67	231.23	-9.39E+00
1196.97	231.29	-9.39E+00
1197.25	231.35	-9.40E+00
1197.56	231.41	-9.40E+00
1197.86	231.47	-9.41E+00
1198.17	231.53	-9.41E+00
1198.46	231.59	-9.42E+00
1198.77	231.65	-9.43E+00
1199.06	231.71	-9.43E+00
1199.37	231.77	-9.44E+00
1199.651	231.83	-9.44E+00
1199.96	231.89	-9.45E+00
1200.25	231.95	-9.45E+00
1200.56	232.01	-9.46E+00
1200.85	232.07	-9.46E+00
1201.16	232.13	-9.47E+00
1201.46	232.19	-9.47E+00
1201.74	232.25	-9.48E+00
1202.05	232.31	-9.48E+00
1202.35	232.37	-9.49E+00
1202.65	232.43	-9.49E+00
1202.96	232.49	-9.50E+00
1203.26	232.55	-9.51E+00
1203.56	232.61	-9.51E+00
1203.85	232.67	-9.51E+00
1204.16	232.73	-9.52E+00
1204.448	232.79	-9.52E+00
1204.75	232.85	-9.53E+00
1205.052	232.91	-9.53E+00
1205.35	232.97	-9.54E+00
1205.65	233.03	-9.55E+00
1205.94	233.09	-9.55E+00
1206.24	233.15	-9.55E+00
1206.54	233.21	-9.56E+00
1206.85	233.27	-9.57E+00
1207.151	233.33	-9.57E+00
1207.45	233.39	-9.58E+00
1207.755	233.45	-9.58E+00
1208.05	233.51	-9.58E+00
1208.35	233.57	-9.59E+00
1208.66	233.63	-9.59E+00
1208.96	233.69	-9.60E+00
1209.25	233.75	-9.61E+00
1209.56	233.81	-9.61E+00
1209.86	233.87	-9.61E+00
1210.151	233.93	-9.62E+00
1210.45	233.99	-9.62E+00
1210.74	234.05	-9.63E+00
1211.04	234.11	-9.63E+00
1211.349	234.17	-9.64E+00
1211.66	234.23	-9.64E+00
1211.96	234.29	-9.65E+00
1212.26	234.35	-9.65E+00
1212.54	234.41	-9.66E+00
1212.84	234.47	-9.66E+00
1213.14	234.53	-9.66E+00
1213.44	234.59	-9.67E+00
1213.74	234.65	-9.68E+00
1214.04	234.71	-9.67E+00
1214.349	234.77	-9.69E+00
1214.66	234.83	-9.69E+00
1214.94	234.89	-9.69E+00
1215.24	234.95	-9.70E+00
1215.55	235.01	-9.70E+00
1215.84	235.07	-9.70E+00
1216.15	235.13	-9.71E+00
1216.44	235.19	-9.72E+00
1216.75	235.25	-9.71E+00
1217.052	235.31	-9.72E+00
1217.34	235.37	-9.72E+00
1217.65	235.43	-9.73E+00
1217.95	235.49	-9.74E+00
1218.25	235.55	-9.74E+00
1218.55	235.61	-9.75E+00
1218.849	235.67	-9.75E+00
1219.15	235.73	-9.75E+00
1219.43	235.79	-9.75E+00
1219.72	235.85	-9.76E+00
1220.04	235.91	-9.77E+00
1220.35	235.97	-9.77E+00
1220.65	236.03	-9.77E+00
1220.94	236.09	-9.77E+00
1221.245	236.15	-9.78E+00
1221.53	236.21	-9.78E+00
1221.85	236.27	-9.79E+00
1222.14	236.33	-9.79E+00
1222.44	236.39	-9.80E+00
1222.75	236.45	-9.80E+00
1223.04	236.51	-9.80E+00
1223.35	236.57	-9.80E+00
1223.64	236.63	-9.81E+00
1223.94	236.69	-9.81E+00
1224.24	236.75	-9.82E+00
1224.54	236.81	-9.82E+00
1224.849	236.87	-9.83E+00
1225.15	236.93	-9.83E+00
1225.46	236.99	-9.83E+00
1225.73	237.05	-9.83E+00
1226.04	237.11	-9.84E+00
1226.328	237.17	-9.84E+00
1226.64	237.23	-9.85E+00
1226.95	237.29	-9.85E+00
1227.24	237.35	-9.86E+00
1227.54	237.41	-9.86E+00
1227.84	237.47	-9.86E+00
1228.14	237.53	-9.87E+00
1228.44	237.59	-9.87E+00
1228.75	237.65	-9.87E+00
1229.04	237.71	-9.88E+00
1229.34	237.77	-9.88E+00
1229.65	237.83	-9.89E+00
1229.96	237.89	-9.89E+00
1230	237.9	-9.88E+00