File: K06_2_corrected.txt
#FILE:                 ;000398_K06_2_1350_Air-static.sle
#FORMAT:               ;NETZSCH5
#IDENTITY:             ;000398
#DECIMAL:              ;POINT
#SEPARATOR:            ;SEMICOLON
#MTYPE:                ;DIL
#MSUBTYPE:             ;
#INSTRUMENT:           ;NETZSCH DIL 402 C
#PROJECT:              ;
#DATE/TIME:            ;24.06.2021 19:46:38
#CORR. FILE:           ;
#LABORATORY:           ;ЌЊ
#OPERATOR:             ;Ћа«®ў Ќ.
#REMARK:               ;
#SAMPLE:               ;K06_2
#SAMPLE LENGTH /mm:    ;2.780
#MATERIAL:             ;бв ­¤ ав­л© ®Ўа §Ґж
#MEASMODE:             ;Standard Expansion
#PURGE GAS 1:          ;
#FLOW RATE 1 /(ml/min):;0
#CORR. CODE:           ;000
#RANGE:                ;40.0/2.0(K/¬Ё­)/1350.0
#SEGMENT:              ;S1/1

##Temp./шC;Time/min;dL/Lo
800.021	379.709	2.15E-01
800.337	379.865	2.13E-01
800.627	380.021	2.10E-01
800.944	380.177	2.08E-01
801.254	380.332	2.06E-01
801.571	380.488	2.04E-01
801.886	380.644	2.02E-01
802.196	380.8	2.00E-01
802.504	380.956	1.98E-01
802.826	381.112	1.95E-01
803.132	381.267	1.93E-01
803.439	381.423	1.90E-01
803.746	381.579	1.89E-01
804.061	381.735	1.86E-01
804.365	381.891	1.84E-01
804.68	382.047	1.82E-01
804.989	382.203	1.79E-01
805.301	382.358	1.77E-01
805.614	382.514	1.74E-01
805.939	382.67	1.73E-01
806.244	382.826	1.70E-01
806.549	382.982	1.67E-01
806.872	383.138	1.66E-01
807.186	383.293	1.63E-01
807.486	383.449	1.61E-01
807.79	383.605	1.58E-01
808.106	383.761	1.56E-01
808.415	383.917	1.54E-01
808.733	384.073	1.50E-01
809.046	384.228	1.49E-01
809.359	384.384	1.47E-01
809.667	384.54	1.44E-01
809.975	384.696	1.41E-01
810.299	384.852	1.39E-01
810.602	385.008	1.36E-01
810.918	385.163	1.34E-01
811.229	385.319	1.32E-01
811.539	385.475	1.29E-01
811.842	385.631	1.27E-01
812.166	385.787	1.24E-01
812.47	385.9425	1.22E-01
812.787	386.098	1.19E-01
813.092	386.254	1.17E-01
813.398	386.41	1.13E-01
813.715	386.566	1.12E-01
814.036	386.722	1.08E-01
814.346	386.8775	1.06E-01
814.65	387.033	1.04E-01
814.975	387.189	1.01E-01
815.281	387.345	9.85E-02
815.605	387.501	9.55E-02
815.901	387.657	9.33E-02
816.208	387.8125	9.07E-02
816.523	387.968	8.80E-02
816.836	388.124	8.55E-02
817.143	388.28	8.23E-02
817.46	388.436	7.97E-02
817.782	388.592	7.68E-02
818.09	388.7475	7.45E-02
818.404	388.903	7.17E-02
818.712	389.059	6.89E-02
819.017	389.215	6.67E-02
819.334	389.371	6.31E-02
819.644	389.527	6.00E-02
819.956	389.6825	5.81E-02
820.263	389.838	5.56E-02
820.577	389.994	5.32E-02
820.889	390.15	4.98E-02
821.208	390.306	4.70E-02
821.509	390.462	4.37E-02
821.82	390.617	4.16E-02
822.136	390.773	3.81E-02
822.447	390.929	3.51E-02
822.759	391.085	3.25E-02
823.069	391.241	3.00E-02
823.371	391.397	2.62E-02
823.693	391.552	2.39E-02
824.005	391.708	2.09E-02
824.314	391.864	1.75E-02
824.627	392.02	1.49E-02
824.928	392.176	1.14E-02
825.254	392.332	8.84E-03
825.566	392.487	6.03E-03
825.88	392.643	3.13E-03
826.193	392.799	-5.60E-04
826.5	392.955	-2.53E-03
826.811	393.111	-6.13E-03
827.122	393.267	-9.72E-03
827.43	393.422	-1.22E-02
827.742	393.578	-1.49E-02
828.05	393.734	-1.84E-02
828.365	393.89	-2.07E-02
828.679	394.046	-2.43E-02
828.987	394.202	-2.75E-02
829.304	394.358	-3.04E-02
829.621	394.513	-3.33E-02
829.937	394.669	-3.68E-02
830.243	394.825	-4.06E-02
830.562	394.981	-4.30E-02
830.871	395.137	-4.68E-02
831.172	395.293	-4.99E-02
831.479	395.448	-5.26E-02
831.796	395.604	-5.67E-02
832.101	395.76	-5.94E-02
832.421	395.916	-6.21E-02
832.725	396.072	-6.57E-02
833.038	396.228	-6.89E-02
833.358	396.383	-7.20E-02
833.673	396.539	-7.57E-02
833.98	396.695	-7.85E-02
834.296	396.851	-8.23E-02
834.604	397.007	-8.54E-02
834.919	397.163	-8.86E-02
835.219	397.318	-9.22E-02
835.53	397.474	-9.53E-02
835.839	397.63	-9.91E-02
836.162	397.786	-1.02E-01
836.478	397.942	-1.06E-01
836.792	398.0975	-1.09E-01
837.101	398.253	-1.12E-01
837.41	398.409	-1.15E-01
837.723	398.565	-1.19E-01
838.04	398.721	-1.23E-01
838.339	398.877	-1.26E-01
838.654	399.0325	-1.30E-01
838.956	399.188	-1.33E-01
839.273	399.344	-1.36E-01
839.584	399.5	-1.40E-01
839.897	399.656	-1.43E-01
840.21	399.812	-1.47E-01
840.522	399.9675	-1.51E-01
840.836	400.123	-1.54E-01
841.138	400.279	-1.58E-01
841.465	400.435	-1.62E-01
841.773	400.591	-1.65E-01
842.086	400.747	-1.69E-01
842.389	400.9025	-1.73E-01
842.698	401.058	-1.76E-01
843.011	401.214	-1.79E-01
843.324	401.37	-1.83E-01
843.633	401.526	-1.87E-01
843.943	401.682	-1.90E-01
844.264	401.837	-1.94E-01
844.575	401.993	-1.98E-01
844.885	402.149	-2.02E-01
845.199	402.305	-2.05E-01
845.526	402.461	-2.09E-01
845.815	402.617	-2.13E-01
846.138	402.772	-2.16E-01
846.445	402.928	-2.20E-01
846.738	403.084	-2.25E-01
847.069	403.24	-2.28E-01
847.38	403.396	-2.32E-01
847.688	403.552	-2.36E-01
847.997	403.707	-2.40E-01
848.315	403.863	-2.44E-01
848.629	404.019	-2.48E-01
848.94	404.175	-2.52E-01
849.255	404.331	-2.56E-01
849.556	404.487	-2.59E-01
849.865	404.642	-2.64E-01
850.179	404.798	-2.68E-01
850.49	404.954	-2.71E-01
850.806	405.11	-2.76E-01
851.12	405.266	-2.80E-01
851.425	405.422	-2.84E-01
851.739	405.578	-2.88E-01
852.05	405.733	-2.92E-01
852.369	405.889	-2.95E-01
852.682	406.045	-3.00E-01
852.991	406.201	-3.03E-01
853.306	406.357	-3.08E-01
853.611	406.513	-3.12E-01
853.921	406.668	-3.17E-01
854.231	406.824	-3.21E-01
854.532	406.98	-3.25E-01
854.848	407.136	-3.29E-01
855.167	407.292	-3.33E-01
855.481	407.448	-3.37E-01
855.789	407.603	-3.42E-01
856.106	407.759	-3.47E-01
856.405	407.915	-3.50E-01
856.721	408.071	-3.55E-01
857.037	408.227	-3.59E-01
857.361	408.383	-3.63E-01
857.657	408.538	-3.67E-01
857.97	408.694	-3.72E-01
858.281	408.85	-3.77E-01
858.59	409.006	-3.81E-01
858.906	409.162	-3.85E-01
859.214	409.3175	-3.90E-01
859.52	409.473	-3.94E-01
859.836	409.629	-3.99E-01
860.159	409.785	-4.03E-01
860.461	409.941	-4.07E-01
860.77	410.097	-4.12E-01
861.08	410.2525	-4.17E-01
861.404	410.408	-4.21E-01
861.709	410.564	-4.26E-01
862.013	410.72	-4.30E-01
862.325	410.876	-4.35E-01
862.64	411.032	-4.40E-01
862.952	411.1875	-4.44E-01
863.264	411.343	-4.49E-01
863.579	411.499	-4.54E-01
863.904	411.655	-4.58E-01
864.21	411.811	-4.63E-01
864.515	411.967	-4.67E-01
864.823	412.1225	-4.72E-01
865.128	412.278	-4.77E-01
865.437	412.434	-4.81E-01
865.756	412.59	-4.87E-01
866.063	412.746	-4.91E-01
866.374	412.902	-4.95E-01
866.693	413.0575	-5.01E-01
867.016	413.213	-5.06E-01
867.321	413.369	-5.10E-01
867.631	413.525	-5.15E-01
867.946	413.681	-5.20E-01
868.25	413.837	-5.25E-01
868.564	413.992	-5.30E-01
868.866	414.148	-5.35E-01
869.176	414.304	-5.39E-01
869.492	414.46	-5.44E-01
869.805	414.616	-5.50E-01
870.112	414.772	-5.55E-01
870.426	414.927	-5.60E-01
870.745	415.083	-5.64E-01
871.064	415.239	-5.69E-01
871.368	415.395	-5.75E-01
871.678	415.551	-5.80E-01
871.982	415.707	-5.84E-01
872.296	415.862	-5.90E-01
872.602	416.018	-5.95E-01
872.923	416.174	-6.00E-01
873.225	416.33	-6.05E-01
873.54	416.486	-6.10E-01
873.862	416.642	-6.15E-01
874.169	416.797	-6.20E-01
874.478	416.953	-6.25E-01
874.796	417.109	-6.31E-01
875.105	417.265	-6.36E-01
875.417	417.421	-6.41E-01
875.727	417.577	-6.46E-01
876.039	417.733	-6.52E-01
876.34	417.888	-6.57E-01
876.655	418.044	-6.63E-01
876.972	418.2	-6.67E-01
877.276	418.356	-6.73E-01
877.593	418.512	-6.78E-01
877.896	418.668	-6.83E-01
878.211	418.823	-6.89E-01
878.526	418.979	-6.95E-01
878.835	419.135	-7.00E-01
879.141	419.291	-7.05E-01
879.463	419.447	-7.11E-01
879.775	419.603	-7.16E-01
880.083	419.758	-7.22E-01
880.391	419.914	-7.27E-01
880.7	420.07	-7.33E-01
881.015	420.226	-7.38E-01
881.33	420.382	-7.44E-01
881.644	420.538	-7.49E-01
881.949	420.693	-7.55E-01
882.269	420.849	-7.61E-01
882.578	421.005	-7.66E-01
882.899	421.161	-7.72E-01
883.203	421.317	-7.78E-01
883.51	421.4725	-7.83E-01
883.822	421.628	-7.88E-01
884.131	421.784	-7.94E-01
884.442	421.94	-8.00E-01
884.753	422.096	-8.06E-01
885.061	422.252	-8.12E-01
885.375	422.4075	-8.17E-01
885.692	422.563	-8.23E-01
886.001	422.719	-8.29E-01
886.316	422.875	-8.35E-01
886.631	423.031	-8.41E-01
886.943	423.187	-8.47E-01
887.255	423.3425	-8.52E-01
887.56	423.498	-8.59E-01
887.873	423.654	-8.64E-01
888.182	423.81	-8.70E-01
888.498	423.966	-8.75E-01
888.802	424.122	-8.82E-01
889.119	424.2775	-8.88E-01
889.443	424.433	-8.94E-01
889.751	424.589	-9.00E-01
890.066	424.745	-9.06E-01
890.38	424.901	-9.12E-01
890.682	425.057	-9.18E-01
890.985	425.212	-9.24E-01
891.298	425.368	-9.30E-01
891.608	425.524	-9.36E-01
891.926	425.68	-9.42E-01
892.232	425.836	-9.48E-01
892.545	425.992	-9.55E-01
892.869	426.147	-9.61E-01
893.177	426.303	-9.67E-01
893.487	426.459	-9.73E-01
893.804	426.615	-9.79E-01
894.119	426.771	-9.86E-01
894.428	426.927	-9.92E-01
894.731	427.082	-9.98E-01
895.042	427.238	-1.00E+00
895.344	427.394	-1.01E+00
895.668	427.55	-1.02E+00
895.977	427.706	-1.02E+00
896.279	427.862	-1.03E+00
896.603	428.017	-1.04E+00
896.921	428.173	-1.04E+00
897.227	428.329	-1.05E+00
897.54	428.485	-1.05E+00
897.855	428.641	-1.06E+00
898.164	428.797	-1.07E+00
898.473	428.953	-1.07E+00
898.776	429.108	-1.08E+00
899.092	429.264	-1.09E+00
899.405	429.42	-1.09E+00
899.712	429.576	-1.10E+00
900.029	429.732	-1.11E+00
900.338	429.888	-1.11E+00
900.657	430.043	-1.12E+00
900.97	430.199	-1.13E+00
901.274	430.355	-1.13E+00
901.587	430.511	-1.14E+00
901.896	430.667	-1.15E+00
902.209	430.823	-1.15E+00
902.518	430.978	-1.16E+00
902.829	431.134	-1.17E+00
903.143	431.29	-1.17E+00
903.455	431.446	-1.18E+00
903.763	431.602	-1.19E+00
904.072	431.758	-1.19E+00
904.392	431.913	-1.20E+00
904.704	432.069	-1.21E+00
905.021	432.225	-1.21E+00
905.331	432.381	-1.22E+00
905.64	432.537	-1.23E+00
905.947	432.6925	-1.23E+00
906.256	432.848	-1.24E+00
906.563	433.004	-1.25E+00
906.875	433.16	-1.25E+00
907.191	433.316	-1.26E+00
907.5	433.472	-1.27E+00
907.817	433.6275	-1.27E+00
908.132	433.783	-1.28E+00
908.447	433.939	-1.29E+00
908.764	434.095	-1.29E+00
909.072	434.251	-1.30E+00
909.38	434.407	-1.31E+00
909.684	434.5625	-1.32E+00
909.997	434.718	-1.32E+00
910.302	434.874	-1.33E+00
910.615	435.03	-1.34E+00
910.929	435.186	-1.34E+00
911.246	435.342	-1.35E+00
911.56	435.4975	-1.36E+00
911.873	435.653	-1.36E+00
912.189	435.809	-1.37E+00
912.494	435.965	-1.38E+00
912.817	436.121	-1.39E+00
913.122	436.277	-1.39E+00
913.428	436.4325	-1.40E+00
913.735	436.588	-1.41E+00
914.049	436.744	-1.41E+00
914.364	436.9	-1.42E+00
914.677	437.056	-1.43E+00
914.993	437.212	-1.44E+00
915.317	437.367	-1.44E+00
915.621	437.523	-1.45E+00
915.933	437.679	-1.46E+00
916.236	437.835	-1.46E+00
916.542	437.991	-1.47E+00
916.848	438.147	-1.48E+00
917.168	438.302	-1.49E+00
917.485	438.458	-1.49E+00
917.793	438.614	-1.50E+00
918.098	438.77	-1.51E+00
918.419	438.926	-1.52E+00
918.73	439.082	-1.52E+00
919.041	439.237	-1.53E+00
919.361	439.393	-1.54E+00
919.669	439.549	-1.54E+00
919.975	439.705	-1.55E+00
920.277	439.861	-1.56E+00
920.591	440.017	-1.57E+00
920.904	440.172	-1.57E+00
921.214	440.328	-1.58E+00
921.528	440.484	-1.59E+00
921.838	440.64	-1.60E+00
922.151	440.796	-1.60E+00
922.464	440.952	-1.61E+00
922.781	441.108	-1.62E+00
923.096	441.263	-1.63E+00
923.4	441.419	-1.63E+00
923.713	441.575	-1.64E+00
924.034	441.731	-1.65E+00
924.328	441.887	-1.66E+00
924.642	442.043	-1.66E+00
924.957	442.198	-1.67E+00
925.262	442.354	-1.68E+00
925.584	442.51	-1.69E+00
925.892	442.666	-1.69E+00
926.206	442.822	-1.70E+00
926.53	442.978	-1.71E+00
926.835	443.133	-1.72E+00
927.15	443.289	-1.72E+00
927.448	443.445	-1.73E+00
927.76	443.601	-1.74E+00
928.075	443.757	-1.75E+00
928.385	443.913	-1.76E+00
928.688	444.068	-1.76E+00
929.001	444.224	-1.77E+00
929.311	444.38	-1.78E+00
929.631	444.536	-1.79E+00
929.95	444.692	-1.79E+00
930.251	444.8475	-1.80E+00
930.556	445.003	-1.81E+00
930.876	445.159	-1.82E+00
931.186	445.315	-1.82E+00
931.485	445.471	-1.83E+00
931.803	445.627	-1.84E+00
932.12	445.7825	-1.85E+00
932.434	445.938	-1.86E+00
932.749	446.094	-1.86E+00
933.053	446.25	-1.87E+00
933.371	446.406	-1.88E+00
933.689	446.562	-1.89E+00
933.998	446.7175	-1.89E+00
934.308	446.873	-1.90E+00
934.609	447.029	-1.91E+00
934.918	447.185	-1.92E+00
935.232	447.341	-1.92E+00
935.543	447.497	-1.93E+00
935.858	447.6525	-1.94E+00
936.171	447.808	-1.95E+00
936.481	447.964	-1.96E+00
936.798	448.12	-1.96E+00
937.114	448.276	-1.97E+00
937.43	448.432	-1.98E+00
937.732	448.587	-1.99E+00
938.039	448.743	-2.00E+00
938.345	448.899	-2.00E+00
938.66	449.055	-2.01E+00
938.977	449.211	-2.02E+00
939.288	449.367	-2.03E+00
939.591	449.522	-2.04E+00
939.911	449.678	-2.04E+00
940.227	449.834	-2.05E+00
940.538	449.99	-2.06E+00
940.848	450.146	-2.07E+00
941.157	450.302	-2.07E+00
941.473	450.457	-2.08E+00
941.778	450.613	-2.09E+00
942.086	450.769	-2.10E+00
942.399	450.925	-2.11E+00
942.706	451.081	-2.12E+00
943.023	451.237	-2.12E+00
943.331	451.392	-2.13E+00
943.648	451.548	-2.14E+00
943.965	451.704	-2.15E+00
944.272	451.86	-2.16E+00
944.584	452.016	-2.16E+00
944.889	452.172	-2.17E+00
945.199	452.328	-2.18E+00
945.515	452.483	-2.19E+00
945.822	452.639	-2.20E+00
946.129	452.795	-2.20E+00
946.441	452.951	-2.21E+00
946.755	453.107	-2.22E+00
947.078	453.263	-2.23E+00
947.389	453.418	-2.24E+00
947.7	453.574	-2.24E+00
948.015	453.73	-2.25E+00
948.324	453.886	-2.26E+00
948.65	454.042	-2.27E+00
948.941	454.198	-2.28E+00
949.249	454.353	-2.28E+00
949.56	454.509	-2.29E+00
949.881	454.665	-2.30E+00
950.185	454.821	-2.31E+00
950.5	454.977	-2.32E+00
950.815	455.133	-2.33E+00
951.13	455.288	-2.33E+00
951.447	455.444	-2.34E+00
951.752	455.6	-2.35E+00
952.057	455.756	-2.36E+00
952.376	455.912	-2.37E+00
952.685	456.0675	-2.37E+00
952.989	456.223	-2.38E+00
953.3	456.379	-2.39E+00
953.613	456.535	-2.40E+00
953.926	456.691	-2.41E+00
954.248	456.847	-2.42E+00
954.547	457.0025	-2.42E+00
954.872	457.158	-2.43E+00
955.18	457.314	-2.44E+00
955.497	457.47	-2.45E+00
955.801	457.626	-2.46E+00
956.104	457.782	-2.47E+00
956.42	457.9375	-2.47E+00
956.726	458.093	-2.48E+00
957.044	458.249	-2.49E+00
957.353	458.405	-2.50E+00
957.674	458.561	-2.51E+00
957.984	458.717	-2.52E+00
958.298	458.8725	-2.52E+00
958.607	459.028	-2.53E+00
958.924	459.184	-2.54E+00
959.217	459.34	-2.55E+00
959.535	459.496	-2.56E+00
959.847	459.652	-2.57E+00
960.159	459.8075	-2.57E+00
960.463	459.963	-2.58E+00
960.78	460.119	-2.59E+00
961.093	460.275	-2.60E+00
961.411	460.431	-2.61E+00
961.716	460.587	-2.62E+00
962.026	460.742	-2.62E+00
962.329	460.898	-2.63E+00
962.642	461.054	-2.64E+00
962.954	461.21	-2.65E+00
963.268	461.366	-2.66E+00
963.572	461.522	-2.67E+00
963.888	461.677	-2.68E+00
964.196	461.833	-2.68E+00
964.522	461.989	-2.69E+00
964.835	462.145	-2.70E+00
965.15	462.301	-2.71E+00
965.464	462.457	-2.72E+00
965.779	462.612	-2.73E+00
966.086	462.768	-2.74E+00
966.382	462.924	-2.74E+00
966.7	463.08	-2.75E+00
967.014	463.236	-2.76E+00
967.325	463.392	-2.77E+00
967.629	463.547	-2.78E+00
967.947	463.703	-2.79E+00
968.265	463.859	-2.80E+00
968.571	464.015	-2.81E+00
968.884	464.171	-2.81E+00
969.198	464.327	-2.82E+00
969.507	464.483	-2.83E+00
969.811	464.638	-2.84E+00
970.118	464.794	-2.85E+00
970.437	464.95	-2.86E+00
970.752	465.106	-2.86E+00
971.055	465.262	-2.88E+00
971.367	465.418	-2.88E+00
971.688	465.573	-2.89E+00
971.995	465.729	-2.90E+00
972.309	465.885	-2.91E+00
972.616	466.041	-2.92E+00
972.929	466.197	-2.93E+00
973.245	466.353	-2.94E+00
973.552	466.508	-2.94E+00
973.862	466.664	-2.95E+00
974.178	466.82	-2.96E+00
974.483	466.976	-2.97E+00
974.803	467.132	-2.98E+00
975.113	467.288	-2.99E+00
975.42	467.443	-3.00E+00
975.74	467.599	-3.01E+00
976.053	467.755	-3.02E+00
976.368	467.911	-3.03E+00
976.662	468.067	-3.03E+00
976.984	468.2225	-3.04E+00
977.297	468.378	-3.05E+00
977.608	468.534	-3.06E+00
977.922	468.69	-3.07E+00
978.233	468.846	-3.08E+00
978.539	469.002	-3.09E+00
978.858	469.1575	-3.10E+00
979.167	469.313	-3.11E+00
979.483	469.469	-3.12E+00
979.788	469.625	-3.12E+00
980.093	469.781	-3.13E+00
980.405	469.937	-3.14E+00
980.729	470.0925	-3.15E+00
981.033	470.248	-3.16E+00
981.343	470.404	-3.17E+00
981.653	470.56	-3.18E+00
981.967	470.716	-3.19E+00
982.279	470.872	-3.20E+00
982.59	471.0275	-3.21E+00
982.913	471.183	-3.22E+00
983.237	471.339	-3.22E+00
983.542	471.495	-3.23E+00
983.845	471.651	-3.24E+00
984.155	471.807	-3.25E+00
984.47	471.962	-3.26E+00
984.776	472.118	-3.27E+00
985.087	472.274	-3.28E+00
985.399	472.43	-3.29E+00
985.713	472.586	-3.30E+00
986.032	472.742	-3.31E+00
986.345	472.897	-3.32E+00
986.664	473.053	-3.33E+00
986.967	473.209	-3.34E+00
987.271	473.365	-3.35E+00
987.581	473.521	-3.35E+00
987.898	473.677	-3.36E+00
988.202	473.832	-3.37E+00
988.514	473.988	-3.38E+00
988.825	474.144	-3.39E+00
989.139	474.3	-3.40E+00
989.45	474.456	-3.41E+00
989.769	474.612	-3.42E+00
990.077	474.767	-3.43E+00
990.399	474.923	-3.44E+00
990.707	475.079	-3.45E+00
991.019	475.235	-3.46E+00
991.318	475.391	-3.47E+00
991.628	475.547	-3.48E+00
991.939	475.703	-3.49E+00
992.246	475.858	-3.50E+00
992.563	476.014	-3.51E+00
992.878	476.17	-3.52E+00
993.191	476.326	-3.52E+00
993.512	476.482	-3.53E+00
993.823	476.638	-3.54E+00
994.135	476.793	-3.55E+00
994.429	476.949	-3.56E+00
994.749	477.105	-3.57E+00
995.053	477.261	-3.58E+00
995.364	477.417	-3.59E+00
995.682	477.573	-3.60E+00
995.987	477.728	-3.61E+00
996.3	477.884	-3.62E+00
996.623	478.04	-3.63E+00
996.933	478.196	-3.64E+00
997.246	478.352	-3.65E+00
997.554	478.508	-3.66E+00
997.863	478.663	-3.67E+00
998.177	478.819	-3.68E+00
998.492	478.975	-3.69E+00
998.793	479.131	-3.70E+00
999.103	479.287	-3.71E+00
999.421	479.4425	-3.72E+00
999.739	479.598	-3.73E+00
1000.047	479.754	-3.74E+00
1000.367	479.91	-3.75E+00
1000.68	480.066	-3.76E+00
1001	480.222	-3.77E+00
1001.31	480.3775	-3.78E+00
1001.6	480.533	-3.79E+00
1001.91	480.689	-3.80E+00
1002.22	480.845	-3.81E+00
1002.54	481.001	-3.82E+00
1002.85	481.157	-3.83E+00
1003.164	481.3125	-3.84E+00
1003.479	481.468	-3.84E+00
1003.8	481.624	-3.86E+00
1004.11	481.78	-3.87E+00
1004.42	481.936	-3.88E+00
1004.73	482.092	-3.89E+00
1005.03	482.2475	-3.90E+00
1005.35	482.403	-3.90E+00
1005.66	482.559	-3.92E+00
1005.98	482.715	-3.93E+00
1006.27	482.871	-3.94E+00
1006.59	483.027	-3.95E+00
1006.9	483.1825	-3.96E+00
1007.22	483.338	-3.97E+00
1007.54	483.494	-3.98E+00
1007.84	483.65	-3.99E+00
1008.151	483.806	-4.00E+00
1008.46	483.962	-4.01E+00
1008.776	484.117	-4.01E+00
1009.08	484.273	-4.03E+00
1009.39	484.429	-4.04E+00
1009.7	484.585	-4.05E+00
1010.013	484.741	-4.06E+00
1010.33	484.897	-4.07E+00
1010.64	485.052	-4.08E+00
1010.966	485.208	-4.09E+00
1011.27	485.364	-4.10E+00
1011.591	485.52	-4.11E+00
1011.9	485.676	-4.12E+00
1012.2	485.832	-4.13E+00
1012.52	485.987	-4.14E+00
1012.82	486.143	-4.15E+00
1013.14	486.299	-4.16E+00
1013.45	486.455	-4.17E+00
1013.76	486.611	-4.18E+00
1014.08	486.767	-4.19E+00
1014.4	486.922	-4.20E+00
1014.71	487.078	-4.21E+00
1015.01	487.234	-4.22E+00
1015.31	487.39	-4.23E+00
1015.63	487.546	-4.24E+00
1015.94	487.702	-4.25E+00
1016.25	487.858	-4.26E+00
1016.565	488.013	-4.27E+00
1016.88	488.169	-4.28E+00
1017.2	488.325	-4.29E+00
1017.51	488.481	-4.30E+00
1017.82	488.637	-4.31E+00
1018.12	488.793	-4.32E+00
1018.43	488.948	-4.33E+00
1018.742	489.104	-4.34E+00
1019.06	489.26	-4.35E+00
1019.367	489.416	-4.36E+00
1019.68	489.572	-4.37E+00
1020	489.728	-4.39E+00
1020.31	489.883	-4.39E+00
1020.62	490.039	-4.41E+00
1020.94	490.195	-4.42E+00
1021.25	490.351	-4.43E+00
1021.56	490.507	-4.44E+00
1021.88	490.663	-4.45E+00
1022.17	490.818	-4.46E+00
1022.48	490.974	-4.47E+00
1022.79	491.13	-4.48E+00
1023.1	491.286	-4.49E+00
1023.414	491.442	-4.50E+00
1023.73	491.5975	-4.51E+00
1024.05	491.753	-4.52E+00
1024.37	491.909	-4.53E+00
1024.67	492.065	-4.54E+00
1024.99	492.221	-4.55E+00
1025.29	492.377	-4.56E+00
1025.6	492.5325	-4.57E+00
1025.91	492.688	-4.58E+00
1026.23	492.844	-4.59E+00
1026.54	493	-4.60E+00
1026.85	493.156	-4.61E+00
1027.16	493.312	-4.62E+00
1027.48	493.4675	-4.63E+00
1027.79	493.623	-4.64E+00
1028.11	493.779	-4.66E+00
1028.42	493.935	-4.67E+00
1028.72	494.091	-4.68E+00
1029.03	494.247	-4.69E+00
1029.35	494.4025	-4.70E+00
1029.65	494.558	-4.71E+00
1029.96	494.714	-4.72E+00
1030.276	494.87	-4.73E+00
1030.59	495.026	-4.74E+00
1030.9	495.182	-4.75E+00
1031.21	495.337	-4.76E+00
1031.51	495.493	-4.77E+00
1031.84	495.649	-4.78E+00
1032.15	495.805	-4.79E+00
1032.45	495.961	-4.80E+00
1032.77	496.117	-4.81E+00
1033.07	496.272	-4.82E+00
1033.39	496.428	-4.84E+00
1033.71	496.584	-4.85E+00
1034.02	496.74	-4.86E+00
1034.328	496.896	-4.87E+00
1034.65	497.052	-4.88E+00
1034.96	497.207	-4.89E+00
1035.27	497.363	-4.90E+00
1035.58	497.519	-4.91E+00
1035.88	497.675	-4.92E+00
1036.19	497.831	-4.93E+00
1036.5	497.987	-4.94E+00
1036.82	498.142	-4.95E+00
1037.13	498.298	-4.96E+00
1037.44	498.454	-4.97E+00
1037.76	498.61	-4.98E+00
1038.08	498.766	-4.99E+00
1038.39	498.922	-5.01E+00
1038.69	499.078	-5.02E+00
1038.995	499.233	-5.03E+00
1039.31	499.389	-5.04E+00
1039.61	499.545	-5.05E+00
1039.94	499.701	-5.06E+00
1040.24	499.857	-5.07E+00
1040.56	500.013	-5.08E+00
1040.87	500.168	-5.09E+00
1041.19	500.324	-5.10E+00
1041.505	500.48	-5.11E+00
1041.802	500.636	-5.12E+00
1042.11	500.792	-5.13E+00
1042.42	500.948	-5.15E+00
1042.74	501.103	-5.15E+00
1043.052	501.259	-5.17E+00
1043.36	501.415	-5.18E+00
1043.68	501.571	-5.19E+00
1044	501.727	-5.20E+00
1044.31	501.883	-5.21E+00
1044.62	502.038	-5.22E+00
1044.93	502.194	-5.23E+00
1045.23	502.35	-5.24E+00
1045.55	502.506	-5.25E+00
1045.849	502.662	-5.26E+00
1046.16	502.8175	-5.27E+00
1046.47	502.973	-5.28E+00
1046.79	503.129	-5.29E+00
1047.1	503.285	-5.31E+00
1047.41	503.441	-5.31E+00
1047.72	503.597	-5.33E+00
1048.04	503.7525	-5.34E+00
1048.35	503.908	-5.35E+00
1048.66	504.064	-5.36E+00
1048.97	504.22	-5.37E+00
1049.271	504.376	-5.38E+00
1049.59	504.532	-5.39E+00
1049.9	504.6875	-5.40E+00
1050.21	504.843	-5.41E+00
1050.521	504.999	-5.42E+00
1050.84	505.155	-5.43E+00
1051.16	505.311	-5.45E+00
1051.47	505.467	-5.46E+00
1051.78	505.6225	-5.47E+00
1052.09	505.778	-5.48E+00
1052.396	505.934	-5.49E+00
1052.7	506.09	-5.50E+00
1053.03	506.246	-5.51E+00
1053.34	506.402	-5.52E+00
1053.651	506.5575	-5.53E+00
1053.96	506.713	-5.54E+00
1054.27	506.869	-5.55E+00
1054.59	507.025	-5.56E+00
1054.9	507.181	-5.57E+00
1055.203	507.337	-5.58E+00
1055.51	507.492	-5.60E+00
1055.83	507.648	-5.61E+00
1056.14	507.804	-5.62E+00
1056.45	507.96	-5.63E+00
1056.76	508.116	-5.64E+00
1057.08	508.272	-5.65E+00
1057.39	508.427	-5.66E+00
1057.7	508.583	-5.67E+00
1058	508.739	-5.68E+00
1058.33	508.895	-5.69E+00
1058.64	509.051	-5.70E+00
1058.94	509.207	-5.71E+00
1059.25	509.362	-5.73E+00
1059.57	509.518	-5.74E+00
1059.87	509.674	-5.75E+00
1060.18	509.83	-5.76E+00
1060.5	509.986	-5.77E+00
1060.81	510.142	-5.78E+00
1061.12	510.297	-5.79E+00
1061.44	510.453	-5.80E+00
1061.75	510.609	-5.81E+00
1062.05	510.765	-5.82E+00
1062.36	510.921	-5.83E+00
1062.67	511.077	-5.84E+00
1062.974	511.233	-5.85E+00
1063.297	511.388	-5.87E+00
1063.62	511.544	-5.88E+00
1063.93	511.7	-5.89E+00
1064.24	511.856	-5.90E+00
1064.55	512.012	-5.91E+00
1064.87	512.167	-5.92E+00
1065.18	512.3233	-5.93E+00
1065.48	512.479	-5.94E+00
1065.79	512.635	-5.95E+00
1066.11	512.791	-5.96E+00
1066.42	512.947	-5.97E+00
1066.73	513.102	-5.98E+00
1067.04	513.258	-5.99E+00
1067.35	513.414	-6.00E+00
1067.672	513.57	-6.01E+00
1067.98	513.726	-6.02E+00
1068.3	513.882	-6.04E+00
1068.59	514.037	-6.05E+00
1068.9	514.193	-6.06E+00
1069.22	514.349	-6.07E+00
1069.53	514.505	-6.08E+00
1069.84	514.661	-6.09E+00
1070.16	514.817	-6.10E+00
1070.46	514.972	-6.11E+00
1070.78	515.128	-6.12E+00
1071.1	515.284	-6.13E+00
1071.41	515.44	-6.14E+00
1071.71	515.596	-6.15E+00
1072.02	515.752	-6.16E+00
1072.34	515.907	-6.17E+00
1072.65	516.063	-6.18E+00
1072.953	516.219	-6.20E+00
1073.26	516.375	-6.21E+00
1073.58	516.531	-6.22E+00
1073.896	516.687	-6.23E+00
1074.21	516.843	-6.24E+00
1074.52	516.998	-6.25E+00
1074.84	517.154	-6.26E+00
1075.146	517.31	-6.27E+00
1075.46	517.466	-6.28E+00
1075.77	517.622	-6.29E+00
1076.08	517.778	-6.30E+00
1076.39	517.933	-6.31E+00
1076.7	518.089	-6.33E+00
1077.01	518.245	-6.34E+00
1077.32	518.401	-6.34E+00
1077.64	518.557	-6.36E+00
1077.96	518.713	-6.37E+00
1078.27	518.868	-6.38E+00
1078.578	519.024	-6.39E+00
1078.88	519.18	-6.40E+00
1079.19	519.336	-6.41E+00
1079.5	519.492	-6.42E+00
1079.81	519.648	-6.43E+00
1080.13	519.803	-6.44E+00
1080.44	519.959	-6.45E+00
1080.75	520.115	-6.46E+00
1081.06	520.271	-6.47E+00
1081.38	520.4267	-6.48E+00
1081.69	520.583	-6.49E+00
1082	520.738	-6.50E+00
1082.3	520.894	-6.51E+00
1082.61	521.05	-6.52E+00
1082.92	521.206	-6.53E+00
1083.25	521.362	-6.55E+00
1083.55	521.518	-6.55E+00
1083.86	521.673	-6.57E+00
1084.19	521.829	-6.58E+00
1084.505	521.985	-6.58E+00
1084.82	522.141	-6.59E+00
1085.12	522.297	-6.61E+00
1085.43	522.453	-6.62E+00
1085.74	522.608	-6.62E+00
1086.05	522.764	-6.63E+00
1086.36	522.92	-6.65E+00
1086.67	523.076	-6.66E+00
1086.98	523.232	-6.67E+00
1087.3	523.388	-6.68E+00
1087.61	523.543	-6.69E+00
1087.92	523.699	-6.70E+00
1088.23	523.855	-6.71E+00
1088.54	524.0108	-6.72E+00
1088.86	524.167	-6.73E+00
1089.172	524.323	-6.74E+00
1089.47	524.478	-6.75E+00
1089.79	524.634	-6.76E+00
1090.09	524.79	-6.77E+00
1090.42	524.946	-6.78E+00
1090.73	525.102	-6.79E+00
1091.04	525.258	-6.80E+00
1091.36	525.413	-6.81E+00
1091.67	525.569	-6.82E+00
1091.99	525.725	-6.83E+00
1092.3	525.881	-6.84E+00
1092.59	526.037	-6.85E+00
1092.9	526.1925	-6.86E+00
1093.203	526.348	-6.87E+00
1093.51	526.504	-6.88E+00
1093.84	526.66	-6.89E+00
1094.15	526.816	-6.90E+00
1094.46	526.972	-6.91E+00
1094.78	527.1275	-6.92E+00
1095.1	527.283	-6.93E+00
1095.41	527.439	-6.94E+00
1095.7	527.595	-6.95E+00
1096.02	527.751	-6.96E+00
1096.33	527.907	-6.97E+00
1096.64	528.0625	-6.98E+00
1096.94	528.218	-6.99E+00
1097.27	528.374	-7.00E+00
1097.58	528.53	-7.01E+00
1097.9	528.686	-7.02E+00
1098.22	528.842	-7.03E+00
1098.526	528.9975	-7.04E+00
1098.823	529.153	-7.05E+00
1099.14	529.309	-7.06E+00
1099.44	529.465	-7.07E+00
1099.75	529.621	-7.08E+00
1100.07	529.777	-7.09E+00
1100.37	529.9325	-7.10E+00
1100.69	530.088	-7.10E+00
1101.01	530.244	-7.12E+00
1101.33	530.4	-7.13E+00
1101.65	530.556	-7.13E+00
1101.94	530.712	-7.15E+00
1102.25	530.867	-7.15E+00
1102.573	531.023	-7.17E+00
1102.88	531.179	-7.17E+00
1103.18	531.335	-7.18E+00
1103.5	531.491	-7.19E+00
1103.81	531.647	-7.20E+00
1104.13	531.802	-7.21E+00
1104.44	531.958	-7.22E+00
1104.75	532.1142	-7.23E+00
1105.06	532.27	-7.24E+00
1105.37	532.426	-7.25E+00
1105.69	532.582	-7.26E+00
1106	532.737	-7.27E+00
1106.31	532.893	-7.28E+00
1106.6	533.049	-7.29E+00
1106.93	533.205	-7.29E+00
1107.24	533.361	-7.31E+00
1107.56	533.517	-7.32E+00
1107.86	533.672	-7.33E+00
1108.18	533.828	-7.33E+00
1108.49	533.984	-7.34E+00
1108.8	534.14	-7.35E+00
1109.104	534.296	-7.36E+00
1109.42	534.452	-7.37E+00
1109.73	534.607	-7.38E+00
1110.05	534.763	-7.39E+00
1110.35	534.919	-7.40E+00
1110.67	535.075	-7.41E+00
1110.99	535.231	-7.42E+00
1111.29	535.387	-7.43E+00
1111.6	535.542	-7.43E+00
1111.92	535.6983	-7.45E+00
1112.22	535.854	-7.46E+00
1112.53	536.01	-7.46E+00
1112.84	536.166	-7.47E+00
1113.151	536.322	-7.48E+00
1113.48	536.477	-7.49E+00
1113.78	536.633	-7.50E+00
1114.1	536.789	-7.51E+00
1114.422	536.945	-7.52E+00
1114.73	537.101	-7.53E+00
1115.04	537.257	-7.53E+00
1115.34	537.412	-7.54E+00
1115.65	537.568	-7.55E+00
1115.96	537.724	-7.56E+00
1116.27	537.88	-7.57E+00
1116.58	538.036	-7.58E+00
1116.9	538.192	-7.59E+00
1117.21	538.347	-7.60E+00
1117.53	538.503	-7.61E+00
1117.84	538.659	-7.62E+00
1118.16	538.815	-7.62E+00
1118.45	538.971	-7.63E+00
1118.77	539.127	-7.64E+00
1119.08	539.282	-7.65E+00
1119.39	539.438	-7.66E+00
1119.7	539.594	-7.67E+00
1120.01	539.75	-7.68E+00
1120.33	539.906	-7.68E+00
1120.646	540.062	-7.69E+00
1120.96	540.218	-7.70E+00
1121.28	540.373	-7.71E+00
1121.58	540.529	-7.72E+00
1121.89	540.685	-7.73E+00
1122.198	540.841	-7.74E+00
1122.505	540.997	-7.74E+00
1122.81	541.153	-7.75E+00
1123.12	541.308	-7.76E+00
1123.44	541.464	-7.77E+00
1123.76	541.62	-7.77E+00
1124.07	541.776	-7.79E+00
1124.38	541.932	-7.80E+00
1124.69	542.088	-7.80E+00
1125	542.243	-7.81E+00
1125.32	542.399	-7.82E+00
1125.62	542.555	-7.83E+00
1125.94	542.711	-7.84E+00
1126.24	542.867	-7.85E+00
1126.55	543.023	-7.86E+00
1126.87	543.178	-7.86E+00
1127.19	543.334	-7.87E+00
1127.5	543.49	-7.88E+00
1127.8	543.646	-7.89E+00
1128.12	543.8017	-7.90E+00
1128.42	543.958	-7.91E+00
1128.73	544.113	-7.91E+00
1129.047	544.269	-7.92E+00
1129.37	544.425	-7.93E+00
1129.67	544.581	-7.94E+00
1129.98	544.737	-7.95E+00
1130.31	544.893	-7.95E+00
1130.61	545.048	-7.96E+00
1130.92	545.204	-7.97E+00
1131.23	545.36	-7.98E+00
1131.54	545.516	-7.99E+00
1131.86	545.672	-7.99E+00
1132.17	545.828	-8.00E+00
1132.474	545.983	-8.01E+00
1132.79	546.139	-8.02E+00
1133.11	546.295	-8.02E+00
1133.43	546.451	-8.03E+00
1133.729	546.607	-8.04E+00
1134.04	546.763	-8.05E+00
1134.35	546.918	-8.05E+00
1134.66	547.074	-8.06E+00
1134.98	547.23	-8.07E+00
1135.28	547.3858	-8.08E+00
1135.59	547.542	-8.08E+00
1135.901	547.698	-8.09E+00
1136.22	547.853	-8.10E+00
1136.54	548.009	-8.11E+00
1136.85	548.165	-8.11E+00
1137.15	548.321	-8.12E+00
1137.46	548.477	-8.13E+00
1137.78	548.633	-8.14E+00
1138.1	548.788	-8.15E+00
1138.41	548.944	-8.16E+00
1138.72	549.1	-8.16E+00
1139.02	549.256	-8.17E+00
1139.34	549.412	-8.17E+00
1139.65	549.5675	-8.19E+00
1139.96	549.723	-8.19E+00
1140.271	549.879	-8.20E+00
1140.58	550.035	-8.20E+00
1140.896	550.191	-8.21E+00
1141.21	550.347	-8.22E+00
1141.52	550.5025	-8.23E+00
1141.83	550.658	-8.24E+00
1142.15	550.814	-8.24E+00
1142.45	550.97	-8.25E+00
1142.76	551.126	-8.26E+00
1143.08	551.282	-8.26E+00
1143.38	551.4375	-8.27E+00
1143.69	551.593	-8.28E+00
1144.01	551.749	-8.29E+00
1144.31	551.905	-8.29E+00
1144.63	552.061	-8.30E+00
1144.95	552.217	-8.31E+00
1145.26	552.3725	-8.32E+00
1145.57	552.528	-8.32E+00
1145.88	552.684	-8.33E+00
1146.2	552.84	-8.33E+00
1146.5	552.996	-8.34E+00
1146.81	553.152	-8.35E+00
1147.12	553.3075	-8.35E+00
1147.44	553.463	-8.36E+00
1147.74	553.619	-8.37E+00
1148.05	553.775	-8.38E+00
1148.37	553.931	-8.38E+00
1148.69	554.087	-8.39E+00
1149	554.242	-8.39E+00
1149.31	554.398	-8.40E+00
1149.625	554.554	-8.41E+00
1149.92	554.71	-8.42E+00
1150.23	554.866	-8.42E+00
1150.55	555.022	-8.43E+00
1150.86	555.177	-8.44E+00
1151.18	555.333	-8.44E+00
1151.49	555.4892	-8.45E+00
1151.81	555.645	-8.46E+00
1152.11	555.801	-8.46E+00
1152.427	555.957	-8.46E+00
1152.74	556.112	-8.47E+00
1153.06	556.268	-8.48E+00
1153.37	556.424	-8.48E+00
1153.67	556.58	-8.49E+00
1153.97	556.736	-8.50E+00
1154.29	556.892	-8.50E+00
1154.6	557.047	-8.51E+00
1154.92	557.203	-8.52E+00
1155.22	557.359	-8.52E+00
1155.53	557.515	-8.53E+00
1155.87	557.671	-8.54E+00
1156.17	557.827	-8.54E+00
1156.49	557.982	-8.54E+00
1156.78	558.138	-8.55E+00
1157.09	558.294	-8.56E+00
1157.4	558.45	-8.56E+00
1157.71	558.606	-8.57E+00
1158.03	558.762	-8.58E+00
1158.34	558.917	-8.58E+00
1158.66	559.0733	-8.59E+00
1158.98	559.229	-8.60E+00
1159.3	559.385	-8.60E+00
1159.6	559.541	-8.61E+00
1159.89	559.697	-8.61E+00
1160.21	559.852	-8.62E+00
1160.526	560.008	-8.62E+00
1160.84	560.164	-8.63E+00
1161.16	560.32	-8.63E+00
1161.46	560.476	-8.64E+00
1161.78	560.632	-8.64E+00
1162.1	560.787	-8.65E+00
1162.401	560.943	-8.66E+00
1162.72	561.099	-8.66E+00
1163.01	561.255	-8.67E+00
1163.32	561.411	-8.67E+00
1163.64	561.567	-8.68E+00
1163.94	561.722	-8.68E+00
1164.27	561.878	-8.69E+00
1164.58	562.034	-8.69E+00
1164.89	562.19	-8.70E+00
1165.21	562.346	-8.70E+00
1165.52	562.502	-8.70E+00
1165.84	562.657	-8.71E+00
1166.14	562.813	-8.72E+00
1166.45	562.969	-8.73E+00
1166.76	563.125	-8.73E+00
1167.07	563.281	-8.73E+00
1167.37	563.437	-8.74E+00
1167.7	563.593	-8.74E+00
1168.02	563.748	-8.75E+00
1168.33	563.904	-8.75E+00
1168.651	564.06	-8.75E+00
1168.96	564.216	-8.76E+00
1169.25	564.372	-8.77E+00
1169.57	564.528	-8.77E+00
1169.89	564.683	-8.78E+00
1170.18	564.839	-8.78E+00
1170.495	564.995	-8.79E+00
1170.81	565.151	-8.79E+00
1171.13	565.307	-8.80E+00
1171.453	565.463	-8.80E+00
1171.76	565.618	-8.80E+00
1172.07	565.774	-8.81E+00
1172.37	565.93	-8.82E+00
1172.68	566.086	-8.82E+00
1172.99	566.242	-8.82E+00
1173.3	566.398	-8.82E+00
1173.61	566.553	-8.83E+00
1173.922	566.709	-8.84E+00
1174.23	566.865	-8.84E+00
1174.56	567.021	-8.85E+00
1174.87	567.1767	-8.85E+00
1175.19	567.333	-8.86E+00
1175.49	567.488	-8.85E+00
1175.8	567.644	-8.86E+00
1176.11	567.8	-8.87E+00
1176.43	567.956	-8.87E+00
1176.729	568.112	-8.88E+00
1177.05	568.268	-8.88E+00
1177.35	568.423	-8.89E+00
1177.67	568.579	-8.89E+00
1177.98	568.735	-8.89E+00
1178.3	568.891	-8.90E+00
1178.61	569.047	-8.90E+00
1178.92	569.203	-8.91E+00
1179.22	569.358	-8.91E+00
1179.54	569.514	-8.92E+00
1179.854	569.67	-8.92E+00
1180.16	569.826	-8.93E+00
1180.47	569.982	-8.93E+00
1180.79	570.138	-8.93E+00
1181.09	570.293	-8.94E+00
1181.42	570.449	-8.94E+00
1181.72	570.605	-8.95E+00
1182.03	570.7608	-8.95E+00
1182.34	570.917	-8.95E+00
1182.65	571.073	-8.95E+00
1182.96	571.228	-8.96E+00
1183.27	571.384	-8.96E+00
1183.58	571.54	-8.97E+00
1183.91	571.696	-8.97E+00
1184.22	571.852	-8.98E+00
1184.54	572.008	-8.98E+00
1184.83	572.163	-8.98E+00
1185.14	572.319	-8.99E+00
1185.45	572.475	-8.99E+00
1185.776	572.631	-9.00E+00
1186.078	572.787	-9.00E+00
1186.39	572.9425	-9.00E+00
1186.69	573.098	-9.01E+00
1187.02	573.254	-9.01E+00
1187.34	573.41	-9.01E+00
1187.64	573.566	-9.01E+00
1187.96	573.722	-9.02E+00
1188.26	573.8775	-9.03E+00
1188.56	574.033	-9.03E+00
1188.88	574.189	-9.03E+00
1189.19	574.345	-9.03E+00
1189.5	574.501	-9.04E+00
1189.82	574.657	-9.04E+00
1190.14	574.8125	-9.04E+00
1190.44	574.968	-9.05E+00
1190.77	575.124	-9.05E+00
1191.06	575.28	-9.06E+00
1191.375	575.436	-9.06E+00
1191.69	575.592	-9.06E+00
1192	575.7475	-9.07E+00
1192.31	575.903	-9.07E+00
1192.63	576.059	-9.08E+00
1192.94	576.215	-9.07E+00
1193.25	576.371	-9.08E+00
1193.57	576.527	-9.08E+00
1193.88	576.6825	-9.08E+00
1194.19	576.838	-9.09E+00
1194.5	576.994	-9.09E+00
1194.81	577.15	-9.10E+00
1195.13	577.306	-9.09E+00
1195.43	577.462	-9.10E+00
1195.74	577.617	-9.11E+00
1196.052	577.773	-9.11E+00
1196.36	577.929	-9.11E+00
1196.68	578.085	-9.12E+00
1196.995	578.241	-9.12E+00
1197.3	578.397	-9.12E+00
1197.604	578.552	-9.13E+00
1197.93	578.708	-9.13E+00
1198.24	578.8642	-9.13E+00
1198.56	579.02	-9.13E+00
1198.86	579.176	-9.14E+00
1199.17	579.332	-9.14E+00
1199.48	579.487	-9.14E+00
1199.81	579.643	-9.14E+00
1200.11	579.799	-9.14E+00
1200.42	579.955	-9.15E+00
1200.72	580.111	-9.15E+00
1201.04	580.267	-9.16E+00
1201.35	580.422	-9.16E+00
1201.65	580.578	-9.16E+00
1201.97	580.734	-9.17E+00
1202.276	580.89	-9.17E+00
1202.59	581.046	-9.17E+00
1202.92	581.202	-9.17E+00
1203.23	581.357	-9.18E+00
1203.55	581.513	-9.18E+00
1203.84	581.669	-9.18E+00
1204.151	581.825	-9.18E+00
1204.47	581.981	-9.19E+00
1204.78	582.137	-9.19E+00
1205.1	582.292	-9.19E+00
1205.41	582.4483	-9.20E+00
1205.71	582.604	-9.20E+00
1206.05	582.76	-9.20E+00
1206.35	582.916	-9.21E+00
1206.66	583.072	-9.21E+00
1206.96	583.227	-9.21E+00
1207.28	583.383	-9.21E+00
1207.59	583.539	-9.22E+00
1207.896	583.695	-9.22E+00
1208.21	583.851	-9.22E+00
1208.52	584.007	-9.22E+00
1208.83	584.162	-9.23E+00
1209.15	584.318	-9.23E+00
1209.46	584.474	-9.23E+00
1209.78	584.63	-9.23E+00
1210.08	584.786	-9.24E+00
1210.39	584.942	-9.24E+00
1210.698	585.097	-9.24E+00
1211.02	585.253	-9.25E+00
1211.32	585.409	-9.25E+00
1211.625	585.565	-9.25E+00
1211.94	585.721	-9.25E+00
1212.27	585.877	-9.25E+00
1212.58	586.032	-9.25E+00
1212.89	586.188	-9.26E+00
1213.19	586.344	-9.26E+00
1213.5	586.5	-9.27E+00
1213.82	586.656	-9.27E+00
1214.12	586.812	-9.27E+00
1214.45	586.968	-9.27E+00
1214.76	587.123	-9.27E+00
1215.07	587.279	-9.28E+00
1215.39	587.435	-9.28E+00
1215.7	587.591	-9.28E+00
1216.02	587.747	-9.28E+00
1216.31	587.903	-9.28E+00
1216.62	588.058	-9.29E+00
1216.93	588.214	-9.29E+00
1217.23	588.37	-9.29E+00
1217.552	588.526	-9.30E+00
1217.87	588.682	-9.30E+00
1218.18	588.838	-9.30E+00
1218.5	588.993	-9.30E+00
1218.82	589.149	-9.30E+00
1219.13	589.305	-9.30E+00
1219.43	589.461	-9.31E+00
1219.74	589.617	-9.31E+00
1220.05	589.773	-9.31E+00
1220.37	589.928	-9.31E+00
1220.69	590.084	-9.32E+00
1220.99	590.24	-9.32E+00
1221.302	590.396	-9.32E+00
1221.62	590.5517	-9.33E+00
1221.93	590.708	-9.32E+00
1222.24	590.863	-9.33E+00
1222.54	591.019	-9.33E+00
1222.85	591.175	-9.33E+00
1223.17	591.331	-9.33E+00
1223.48	591.487	-9.34E+00
1223.79	591.643	-9.34E+00
1224.1	591.798	-9.34E+00
1224.422	591.954	-9.34E+00
1224.73	592.11	-9.34E+00
1225.03	592.266	-9.35E+00
1225.35	592.422	-9.35E+00
1225.66	592.578	-9.35E+00
1225.96	592.733	-9.35E+00
1226.27	592.889	-9.35E+00
1226.59	593.045	-9.35E+00
1226.91	593.201	-9.36E+00
1227.22	593.357	-9.36E+00
1227.53	593.513	-9.36E+00
1227.86	593.668	-9.36E+00
1228.18	593.824	-9.36E+00
1228.49	593.98	-9.37E+00
1228.79	594.1358	-9.37E+00
1229.09	594.292	-9.37E+00
1229.41	594.448	-9.38E+00
1229.71	594.603	-9.38E+00
1229.97	594.731	-9.38E+00